Wavelength (nm),Power (dBm)
1525.0,-86.07
1525.005,-210.0
1525.01,-210.0
1525.015,-210.0
1525.02,-210.0
1525.025,-85.49
1525.03,-85.23
1525.035,-210.0
1525.04,-210.0
1525.045,-210.0
1525.05,-210.0
1525.055,-97.53
1525.06,-86.74
1525.065,-89.75
1525.07,-210.0
1525.075,-210.0
1525.08,-91.51
1525.085,-86.74
1525.09,-210.0
1525.095,-210.0
1525.1,-210.0
1525.105,-210.0
1525.11,-210.0
1525.115,-210.0
1525.12,-92.76
1525.125,-91.51
1525.13,-210.0
1525.135,-210.0
1525.14,-210.0
1525.145,-84.31
1525.15,-82.91
1525.155,-210.0
1525.16,-210.0
1525.165,-210.0
1525.17,-210.0
1525.175,-210.0
1525.18,-88.5
1525.185,-97.53
1525.19,-210.0
1525.195,-84.75
1525.2,-80.91
1525.205,-82.22
1525.21,-81.2
1525.215,-91.51
1525.22,-210.0
1525.225,-210.0
1525.23,-97.53
1525.235,-86.74
1525.24,-86.4
1525.245,-86.74
1525.25,-84.98
1525.255,-81.3
1525.26,-85.49
1525.265,-210.0
1525.27,-210.0
1525.275,-210.0
1525.28,-210.0
1525.285,-92.76
1525.29,-89.75
1525.295,-210.0
1525.3,-84.11
1525.305,-82.35
1525.31,-82.76
1525.315,-84.98
1525.32,-88.5
1525.325,-85.49
1525.33,-90.54
1525.335,-83.38
1525.34,-84.52
1525.345,-86.4
1525.35,-83.56
1525.355,-86.07
1525.36,-210.0
1525.365,-210.0
1525.37,-85.49
1525.375,-82.48
1525.38,-82.22
1525.385,-86.07
1525.39,-210.0
1525.395,-210.0
1525.4,-210.0
1525.405,-210.0
1525.41,-210.0
1525.415,-85.77
1525.42,-85.5
1525.425,-84.53
1525.43,-210.0
1525.435,-86.08
1525.44,-88.0
1525.445,-210.0
1525.45,-210.0
1525.455,-210.0
1525.46,-210.0
1525.465,-210.0
1525.47,-210.0
1525.475,-210.0
1525.48,-210.0
1525.485,-83.74
1525.49,-88.51
1525.495,-210.0
1525.5,-210.0
1525.505,-90.55
1525.51,-85.5
1525.515,-90.55
1525.52,-210.0
1525.525,-210.0
1525.53,-210.0
1525.535,-83.07
1525.54,-85.5
1525.545,-210.0
1525.55,-210.0
1525.555,-210.0
1525.56,-85.78
1525.565,-81.86
1525.57,-84.32
1525.575,-85.5
1525.58,-84.53
1525.585,-210.0
1525.59,-210.0
1525.595,-210.0
1525.6,-92.77
1525.605,-82.1
1525.61,-81.11
1525.615,-80.82
1525.62,-81.86
1525.625,-89.76
1525.63,-86.41
1525.635,-83.07
1525.64,-210.0
1525.645,-84.99
1525.65,-85.5
1525.655,-83.74
1525.66,-210.0
1525.665,-84.76
1525.67,-87.13
1525.675,-210.0
1525.68,-94.53
1525.685,-81.86
1525.69,-83.74
1525.695,-210.0
1525.7,-94.53
1525.705,-84.99
1525.71,-210.0
1525.715,-210.0
1525.72,-88.0
1525.725,-94.53
1525.73,-90.55
1525.735,-85.5
1525.74,-84.99
1525.745,-94.53
1525.75,-88.51
1525.755,-82.77
1525.76,-87.54
1525.765,-90.55
1525.77,-84.12
1525.775,-210.0
1525.78,-210.0
1525.785,-210.0
1525.79,-210.0
1525.795,-210.0
1525.8,-210.0
1525.805,-210.0
1525.81,-210.0
1525.815,-210.0
1525.82,-210.0
1525.825,-210.0
1525.83,-88.0
1525.835,-85.24
1525.84,-87.54
1525.845,-210.0
1525.85,-210.0
1525.855,-210.0
1525.86,-90.55
1525.865,-84.99
1525.87,-88.51
1525.875,-86.41
1525.88,-84.99
1525.885,-86.08
1525.89,-210.0
1525.895,-210.0
1525.9,-210.0
1525.905,-84.99
1525.91,-81.31
1525.915,-90.55
1525.92,-97.54
1525.925,-85.24
1525.93,-85.24
1525.935,-210.0
1525.94,-210.0
1525.945,-82.92
1525.95,-210.0
1525.955,-210.0
1525.96,-210.0
1525.965,-89.76
1525.97,-210.0
1525.975,-210.0
1525.98,-88.51
1525.985,-210.0
1525.99,-210.0
1525.995,-210.0
1526.0,-83.39
1526.005,-82.49
1526.01,-89.09
1526.015,-210.0
1526.02,-210.0
1526.025,-87.13
1526.03,-80.55
1526.035,-82.1
1526.04,-84.53
1526.045,-86.75
1526.05,-210.0
1526.055,-210.0
1526.06,-86.41
1526.065,-89.76
1526.07,-210.0
1526.075,-210.0
1526.08,-210.0
1526.085,-210.0
1526.09,-210.0
1526.095,-210.0
1526.1,-210.0
1526.105,-84.32
1526.11,-90.55
1526.115,-83.74
1526.12,-84.99
1526.125,-210.0
1526.13,-90.55
1526.135,-84.99
1526.14,-210.0
1526.145,-210.0
1526.15,-210.0
1526.155,-88.51
1526.16,-92.77
1526.165,-86.75
1526.17,-210.0
1526.175,-210.0
1526.18,-210.0
1526.185,-210.0
1526.19,-210.0
1526.195,-210.0
1526.2,-210.0
1526.205,-210.0
1526.21,-210.0
1526.215,-86.75
1526.22,-81.63
1526.225,-88.51
1526.23,-210.0
1526.235,-210.0
1526.24,-210.0
1526.245,-210.0
1526.25,-210.0
1526.255,-88.0
1526.26,-84.99
1526.265,-210.0
1526.27,-210.0
1526.275,-210.0
1526.28,-89.76
1526.285,-210.0
1526.29,-210.0
1526.295,-210.0
1526.3,-84.12
1526.305,-82.49
1526.31,-210.0
1526.315,-210.0
1526.32,-210.0
1526.325,-86.75
1526.33,-84.12
1526.335,-210.0
1526.34,-86.08
1526.345,-83.74
1526.35,-83.74
1526.355,-84.32
1526.36,-89.76
1526.365,-210.0
1526.37,-84.76
1526.375,-89.76
1526.38,-210.0
1526.385,-210.0
1526.39,-210.0
1526.395,-210.0
1526.4,-92.77
1526.405,-91.52
1526.41,-86.41
1526.415,-89.76
1526.42,-210.0
1526.425,-210.0
1526.43,-210.0
1526.435,-210.0
1526.44,-94.53
1526.445,-210.0
1526.45,-210.0
1526.455,-210.0
1526.46,-84.99
1526.465,-84.32
1526.47,-83.23
1526.475,-94.53
1526.48,-210.0
1526.485,-210.0
1526.49,-210.0
1526.495,-210.0
1526.5,-210.0
1526.505,-210.0
1526.51,-210.0
1526.515,-210.0
1526.52,-92.77
1526.525,-210.0
1526.53,-94.53
1526.535,-210.0
1526.54,-210.0
1526.545,-210.0
1526.55,-210.0
1526.555,-210.0
1526.56,-210.0
1526.565,-83.39
1526.57,-84.99
1526.575,-210.0
1526.58,-210.0
1526.585,-210.0
1526.59,-87.54
1526.595,-210.0
1526.6,-210.0
1526.605,-210.0
1526.61,-210.0
1526.615,-84.32
1526.62,-94.53
1526.625,-89.09
1526.63,-90.55
1526.635,-85.24
1526.64,-83.74
1526.645,-85.5
1526.65,-84.53
1526.655,-86.75
1526.66,-210.0
1526.665,-210.0
1526.67,-210.0
1526.675,-90.55
1526.68,-85.5
1526.685,-94.53
1526.69,-210.0
1526.695,-210.0
1526.7,-210.0
1526.705,-85.78
1526.71,-80.82
1526.715,-82.49
1526.72,-91.52
1526.725,-210.0
1526.73,-84.53
1526.735,-89.09
1526.74,-94.53
1526.745,-94.53
1526.75,-83.23
1526.755,-84.12
1526.76,-210.0
1526.765,-210.0
1526.77,-92.77
1526.775,-210.0
1526.78,-210.0
1526.785,-84.99
1526.79,-86.41
1526.795,-82.1
1526.8,-81.98
1526.805,-210.0
1526.81,-210.0
1526.815,-210.0
1526.82,-210.0
1526.825,-210.0
1526.83,-210.0
1526.835,-210.0
1526.84,-210.0
1526.845,-94.53
1526.85,-85.24
1526.855,-84.99
1526.86,-210.0
1526.865,-85.78
1526.87,-210.0
1526.875,-210.0
1526.88,-210.0
1526.885,-84.32
1526.89,-210.0
1526.895,-210.0
1526.9,-210.0
1526.905,-210.0
1526.91,-210.0
1526.915,-210.0
1526.92,-92.77
1526.925,-89.09
1526.93,-86.75
1526.935,-86.08
1526.94,-85.24
1526.945,-80.06
1526.95,-85.5
1526.955,-210.0
1526.96,-210.0
1526.965,-210.0
1526.97,-210.0
1526.975,-210.0
1526.98,-210.0
1526.985,-210.0
1526.99,-210.0
1526.995,-210.0
1527.0,-210.0
1527.005,-83.74
1527.01,-88.0
1527.015,-97.54
1527.02,-86.75
1527.025,-210.0
1527.03,-210.0
1527.035,-210.0
1527.04,-89.76
1527.045,-210.0
1527.05,-210.0
1527.055,-210.0
1527.06,-210.0
1527.065,-84.12
1527.07,-86.08
1527.075,-210.0
1527.08,-210.0
1527.085,-86.75
1527.09,-210.0
1527.095,-210.0
1527.1,-210.0
1527.105,-84.99
1527.11,-82.1
1527.115,-83.07
1527.12,-82.1
1527.125,-81.01
1527.13,-83.07
1527.135,-210.0
1527.14,-210.0
1527.145,-91.52
1527.15,-210.0
1527.155,-91.52
1527.16,-90.55
1527.165,-210.0
1527.17,-90.55
1527.175,-210.0
1527.18,-94.53
1527.185,-210.0
1527.19,-210.0
1527.195,-210.0
1527.2,-89.76
1527.205,-86.75
1527.21,-210.0
1527.215,-210.0
1527.22,-210.0
1527.225,-85.78
1527.23,-82.36
1527.235,-83.07
1527.24,-84.76
1527.245,-85.24
1527.25,-87.13
1527.255,-84.53
1527.26,-82.49
1527.265,-89.76
1527.27,-210.0
1527.275,-210.0
1527.28,-92.77
1527.285,-88.51
1527.29,-210.0
1527.295,-210.0
1527.3,-210.0
1527.305,-86.41
1527.31,-97.54
1527.315,-210.0
1527.32,-210.0
1527.325,-83.57
1527.33,-81.52
1527.335,-83.23
1527.34,-88.51
1527.345,-88.51
1527.35,-83.74
1527.355,-210.0
1527.36,-82.92
1527.365,-83.93
1527.37,-210.0
1527.375,-210.0
1527.38,-94.53
1527.385,-94.53
1527.39,-87.54
1527.395,-210.0
1527.4,-210.0
1527.405,-210.0
1527.41,-210.0
1527.415,-210.0
1527.42,-210.0
1527.425,-210.0
1527.43,-210.0
1527.435,-210.0
1527.44,-210.0
1527.445,-210.0
1527.45,-87.99
1527.455,-83.06
1527.46,-210.0
1527.465,-210.0
1527.47,-90.54
1527.475,-84.11
1527.48,-85.23
1527.485,-83.22
1527.49,-94.52
1527.495,-86.4
1527.5,-86.74
1527.505,-90.54
1527.51,-210.0
1527.515,-210.0
1527.52,-90.54
1527.525,-90.54
1527.53,-210.0
1527.535,-210.0
1527.54,-88.5
1527.545,-84.11
1527.55,-85.23
1527.555,-85.49
1527.56,-87.53
1527.565,-94.52
1527.57,-94.52
1527.575,-84.11
1527.58,-82.91
1527.585,-82.91
1527.59,-86.74
1527.595,-86.74
1527.6,-82.22
1527.605,-83.73
1527.61,-80.37
1527.615,-82.48
1527.62,-89.75
1527.625,-210.0
1527.63,-210.0
1527.635,-210.0
1527.64,-210.0
1527.645,-210.0
1527.65,-210.0
1527.655,-210.0
1527.66,-210.0
1527.665,-210.0
1527.67,-210.0
1527.675,-92.76
1527.68,-210.0
1527.685,-210.0
1527.69,-210.0
1527.695,-210.0
1527.7,-210.0
1527.705,-210.0
1527.71,-210.0
1527.715,-210.0
1527.72,-210.0
1527.725,-210.0
1527.73,-210.0
1527.735,-88.5
1527.74,-83.38
1527.745,-88.5
1527.75,-210.0
1527.755,-210.0
1527.76,-210.0
1527.765,-85.49
1527.77,-94.52
1527.775,-90.54
1527.78,-210.0
1527.785,-210.0
1527.79,-210.0
1527.795,-91.51
1527.8,-210.0
1527.805,-210.0
1527.81,-87.99
1527.815,-210.0
1527.82,-210.0
1527.825,-90.54
1527.83,-210.0
1527.835,-210.0
1527.84,-210.0
1527.845,-94.52
1527.85,-86.4
1527.855,-88.5
1527.86,-82.76
1527.865,-85.77
1527.87,-210.0
1527.875,-210.0
1527.88,-87.53
1527.885,-81.51
1527.89,-82.76
1527.895,-210.0
1527.9,-90.54
1527.905,-86.4
1527.91,-84.31
1527.915,-88.5
1527.92,-87.99
1527.925,-85.23
1527.93,-81.74
1527.935,-86.4
1527.94,-210.0
1527.945,-87.53
1527.95,-210.0
1527.955,-210.0
1527.96,-89.75
1527.965,-83.73
1527.97,-82.48
1527.975,-89.08
1527.98,-84.11
1527.985,-87.99
1527.99,-86.4
1527.995,-84.52
1528.0,-82.22
1528.005,-90.54
1528.01,-210.0
1528.015,-210.0
1528.02,-210.0
1528.025,-86.4
1528.03,-94.52
1528.035,-210.0
1528.04,-210.0
1528.045,-210.0
1528.05,-86.74
1528.055,-83.73
1528.06,-82.22
1528.065,-210.0
1528.07,-210.0
1528.075,-210.0
1528.08,-86.4
1528.085,-83.73
1528.09,-210.0
1528.095,-210.0
1528.1,-210.0
1528.105,-210.0
1528.11,-210.0
1528.115,-210.0
1528.12,-210.0
1528.125,-210.0
1528.13,-86.07
1528.135,-81.51
1528.14,-80.29
1528.145,-85.23
1528.15,-83.73
1528.155,-85.49
1528.16,-85.23
1528.165,-210.0
1528.17,-210.0
1528.175,-210.0
1528.18,-210.0
1528.185,-210.0
1528.19,-89.08
1528.195,-85.23
1528.2,-83.22
1528.205,-85.49
1528.21,-87.53
1528.215,-94.52
1528.22,-210.0
1528.225,-210.0
1528.23,-83.73
1528.235,-79.98
1528.24,-79.08
1528.245,-82.22
1528.25,-210.0
1528.255,-210.0
1528.26,-87.99
1528.265,-83.22
1528.27,-85.49
1528.275,-210.0
1528.28,-210.0
1528.285,-94.52
1528.29,-210.0
1528.295,-210.0
1528.3,-210.0
1528.305,-210.0
1528.31,-83.73
1528.315,-90.54
1528.32,-86.74
1528.325,-86.4
1528.33,-210.0
1528.335,-210.0
1528.34,-91.51
1528.345,-85.49
1528.35,-210.0
1528.355,-210.0
1528.36,-210.0
1528.365,-92.76
1528.37,-86.07
1528.375,-84.98
1528.38,-210.0
1528.385,-210.0
1528.39,-210.0
1528.395,-89.75
1528.4,-86.07
1528.405,-210.0
1528.41,-91.51
1528.415,-210.0
1528.42,-210.0
1528.425,-86.74
1528.43,-210.0
1528.435,-210.0
1528.44,-210.0
1528.445,-83.38
1528.45,-91.51
1528.455,-210.0
1528.46,-86.4
1528.465,-84.98
1528.47,-210.0
1528.475,-210.0
1528.48,-84.31
1528.485,-82.22
1528.49,-86.4
1528.495,-89.75
1528.5,-210.0
1528.505,-210.0
1528.51,-86.07
1528.515,-81.51
1528.52,-84.31
1528.525,-210.0
1528.53,-210.0
1528.535,-97.53
1528.54,-83.22
1528.545,-85.49
1528.55,-86.07
1528.555,-83.22
1528.56,-84.75
1528.565,-90.54
1528.57,-210.0
1528.575,-210.0
1528.58,-82.91
1528.585,-94.52
1528.59,-90.54
1528.595,-90.54
1528.6,-88.5
1528.605,-210.0
1528.61,-86.4
1528.615,-86.4
1528.62,-83.56
1528.625,-92.76
1528.63,-90.54
1528.635,-210.0
1528.64,-87.99
1528.645,-89.08
1528.65,-210.0
1528.655,-87.53
1528.66,-85.49
1528.665,-83.73
1528.67,-210.0
1528.675,-210.0
1528.68,-84.52
1528.685,-84.75
1528.69,-210.0
1528.695,-210.0
1528.7,-210.0
1528.705,-83.38
1528.71,-86.07
1528.715,-83.73
1528.72,-91.51
1528.725,-89.08
1528.73,-210.0
1528.735,-86.4
1528.74,-84.31
1528.745,-97.53
1528.75,-210.0
1528.755,-210.0
1528.76,-90.55
1528.765,-83.57
1528.77,-85.5
1528.775,-210.0
1528.78,-210.0
1528.785,-210.0
1528.79,-87.13
1528.795,-90.55
1528.8,-210.0
1528.805,-84.99
1528.81,-86.75
1528.815,-92.77
1528.82,-85.5
1528.825,-84.99
1528.83,-82.63
1528.835,-84.76
1528.84,-86.41
1528.845,-86.41
1528.85,-84.53
1528.855,-97.54
1528.86,-210.0
1528.865,-210.0
1528.87,-89.76
1528.875,-89.76
1528.88,-210.0
1528.885,-86.75
1528.89,-210.0
1528.895,-210.0
1528.9,-94.53
1528.905,-91.52
1528.91,-86.08
1528.915,-210.0
1528.92,-210.0
1528.925,-210.0
1528.93,-92.77
1528.935,-89.76
1528.94,-88.51
1528.945,-89.76
1528.95,-210.0
1528.955,-210.0
1528.96,-210.0
1528.965,-210.0
1528.97,-90.55
1528.975,-88.51
1528.98,-89.09
1528.985,-90.55
1528.99,-84.99
1528.995,-85.5
1529.0,-210.0
1529.005,-210.0
1529.01,-210.0
1529.015,-210.0
1529.02,-210.0
1529.025,-210.0
1529.03,-210.0
1529.035,-210.0
1529.04,-210.0
1529.045,-210.0
1529.05,-86.08
1529.055,-84.53
1529.06,-88.51
1529.065,-210.0
1529.07,-210.0
1529.075,-210.0
1529.08,-210.0
1529.085,-210.0
1529.09,-210.0
1529.095,-89.77
1529.1,-210.0
1529.105,-210.0
1529.11,-97.55
1529.115,-210.0
1529.12,-210.0
1529.125,-210.0
1529.13,-210.0
1529.135,-210.0
1529.14,-210.0
1529.145,-210.0
1529.15,-210.0
1529.155,-83.4
1529.16,-81.32
1529.165,-82.93
1529.17,-87.55
1529.175,-94.54
1529.18,-210.0
1529.185,-210.0
1529.19,-90.56
1529.195,-83.08
1529.2,-82.24
1529.205,-210.0
1529.21,-210.0
1529.215,-210.0
1529.22,-210.0
1529.225,-87.14
1529.23,-86.42
1529.235,-210.0
1529.24,-210.0
1529.245,-210.0
1529.25,-92.78
1529.255,-90.56
1529.26,-86.76
1529.265,-85.0
1529.27,-86.76
1529.275,-210.0
1529.28,-210.0
1529.285,-83.75
1529.29,-88.01
1529.295,-210.0
1529.3,-210.0
1529.305,-210.0
1529.31,-210.0
1529.315,-85.51
1529.32,-87.55
1529.325,-210.0
1529.33,-210.0
1529.335,-210.0
1529.34,-210.0
1529.345,-210.0
1529.35,-210.0
1529.355,-210.0
1529.36,-87.14
1529.365,-80.31
1529.37,-85.51
1529.375,-210.0
1529.38,-210.0
1529.385,-210.0
1529.39,-210.0
1529.395,-210.0
1529.4,-90.56
1529.405,-81.87
1529.41,-80.74
1529.415,-84.33
1529.42,-85.52
1529.425,-87.56
1529.43,-86.1
1529.435,-84.55
1529.44,-85.8
1529.445,-210.0
1529.45,-86.77
1529.455,-82.0
1529.46,-82.94
1529.465,-88.02
1529.47,-84.34
1529.475,-86.77
1529.48,-210.0
1529.485,-210.0
1529.49,-87.56
1529.495,-84.14
1529.5,-82.38
1529.505,-82.38
1529.51,-87.56
1529.515,-210.0
1529.52,-94.55
1529.525,-210.0
1529.53,-210.0
1529.535,-86.1
1529.54,-88.53
1529.545,-210.0
1529.55,-83.59
1529.555,-87.56
1529.56,-89.11
1529.565,-83.09
1529.57,-94.55
1529.575,-210.0
1529.58,-210.0
1529.585,-210.0
1529.59,-82.38
1529.595,-83.09
1529.6,-91.54
1529.605,-210.0
1529.61,-89.78
1529.615,-210.0
1529.62,-210.0
1529.625,-210.0
1529.63,-94.55
1529.635,-88.53
1529.64,-82.0
1529.645,-82.0
1529.65,-85.8
1529.655,-86.1
1529.66,-88.53
1529.665,-210.0
1529.67,-210.0
1529.675,-82.94
1529.68,-83.76
1529.685,-94.55
1529.69,-210.0
1529.695,-210.0
1529.7,-210.0
1529.705,-210.0
1529.71,-90.57
1529.715,-210.0
1529.72,-210.0
1529.725,-91.54
1529.73,-83.76
1529.735,-83.09
1529.74,-88.53
1529.745,-83.76
1529.75,-82.0
1529.755,-84.14
1529.76,-82.79
1529.765,-90.57
1529.77,-210.0
1529.775,-210.0
1529.78,-210.0
1529.785,-210.0
1529.79,-210.0
1529.795,-210.0
1529.8,-210.0
1529.805,-210.0
1529.81,-210.0
1529.815,-89.78
1529.82,-88.02
1529.825,-87.56
1529.83,-85.52
1529.835,-83.09
1529.84,-84.14
1529.845,-210.0
1529.85,-210.0
1529.855,-85.8
1529.86,-81.88
1529.865,-210.0
1529.87,-210.0
1529.875,-210.0
1529.88,-210.0
1529.885,-210.0
1529.89,-210.0
1529.895,-210.0
1529.9,-210.0
1529.905,-92.79
1529.91,-210.0
1529.915,-90.57
1529.92,-85.0
1529.925,-83.08
1529.93,-83.08
1529.935,-86.42
1529.94,-86.76
1529.945,-97.55
1529.95,-83.58
1529.955,-79.1
1529.96,-78.98
1529.965,-81.53
1529.97,-88.01
1529.975,-94.54
1529.98,-210.0
1529.985,-210.0
1529.99,-210.0
1529.995,-210.0
1530.0,-83.75
1530.005,-82.5
1530.01,-88.52
1530.015,-210.0
1530.02,-210.0
1530.025,-210.0
1530.03,-83.58
1530.035,-85.25
1530.04,-82.93
1530.045,-94.54
1530.05,-210.0
1530.055,-210.0
1530.06,-87.14
1530.065,-210.0
1530.07,-210.0
1530.075,-210.0
1530.08,-210.0
1530.085,-85.79
1530.09,-82.24
1530.095,-82.78
1530.1,-210.0
1530.105,-210.0
1530.11,-210.0
1530.115,-84.54
1530.12,-210.0
1530.125,-210.0
1530.13,-86.76
1530.135,-210.0
1530.14,-210.0
1530.145,-210.0
1530.15,-210.0
1530.155,-210.0
1530.16,-210.0
1530.165,-210.0
1530.17,-210.0
1530.175,-210.0
1530.18,-85.0
1530.185,-86.42
1530.19,-82.78
1530.195,-81.12
1530.2,-82.64
1530.205,-81.22
1530.21,-81.53
1530.215,-86.42
1530.22,-92.78
1530.225,-94.54
1530.23,-89.1
1530.235,-92.78
1530.24,-89.77
1530.245,-88.52
1530.25,-210.0
1530.255,-210.0
1530.26,-210.0
1530.265,-210.0
1530.27,-210.0
1530.275,-210.0
1530.28,-210.0
1530.285,-210.0
1530.29,-210.0
1530.295,-210.0
1530.3,-94.54
1530.305,-210.0
1530.31,-210.0
1530.315,-84.54
1530.32,-90.56
1530.325,-210.0
1530.33,-210.0
1530.335,-210.0
1530.34,-210.0
1530.345,-210.0
1530.35,-89.77
1530.355,-210.0
1530.36,-90.56
1530.365,-85.51
1530.37,-82.5
1530.375,-88.52
1530.38,-86.42
1530.385,-85.25
1530.39,-210.0
1530.395,-89.1
1530.4,-91.53
1530.405,-210.0
1530.41,-210.0
1530.415,-210.0
1530.42,-210.0
1530.425,-210.0
1530.43,-210.0
1530.435,-210.0
1530.44,-90.55
1530.445,-210.0
1530.45,-90.55
1530.455,-85.5
1530.46,-86.41
1530.465,-210.0
1530.47,-210.0
1530.475,-210.0
1530.48,-210.0
1530.485,-210.0
1530.49,-87.54
1530.495,-86.41
1530.5,-97.54
1530.505,-210.0
1530.51,-210.0
1530.515,-210.0
1530.52,-210.0
1530.525,-210.0
1530.53,-84.53
1530.535,-81.52
1530.54,-80.06
1530.545,-90.55
1530.55,-92.77
1530.555,-81.98
1530.56,-81.98
1530.565,-210.0
1530.57,-82.63
1530.575,-81.75
1530.58,-80.73
1530.585,-81.52
1530.59,-82.77
1530.595,-81.98
1530.6,-84.99
1530.605,-210.0
1530.61,-210.0
1530.615,-85.24
1530.62,-87.54
1530.625,-210.0
1530.63,-210.0
1530.635,-210.0
1530.64,-210.0
1530.645,-85.78
1530.65,-82.77
1530.655,-85.24
1530.66,-86.08
1530.665,-81.75
1530.67,-81.63
1530.675,-83.93
1530.68,-87.54
1530.685,-80.3
1530.69,-80.73
1530.695,-84.99
1530.7,-210.0
1530.705,-83.39
1530.71,-86.08
1530.715,-84.32
1530.72,-81.86
1530.725,-83.57
1530.73,-83.57
1530.735,-81.31
1530.74,-84.99
1530.745,-86.08
1530.75,-81.52
1530.755,-83.39
1530.76,-86.41
1530.765,-86.75
1530.77,-84.32
1530.775,-94.53
1530.78,-210.0
1530.785,-86.75
1530.79,-210.0
1530.795,-210.0
1530.8,-210.0
1530.805,-210.0
1530.81,-210.0
1530.815,-94.53
1530.82,-87.54
1530.825,-90.55
1530.83,-88.51
1530.835,-86.41
1530.84,-210.0
1530.845,-210.0
1530.85,-91.52
1530.855,-210.0
1530.86,-210.0
1530.865,-210.0
1530.87,-86.08
1530.875,-82.49
1530.88,-86.08
1530.885,-92.77
1530.89,-94.53
1530.895,-90.55
1530.9,-88.0
1530.905,-83.07
1530.91,-83.39
1530.915,-210.0
1530.92,-90.56
1530.925,-91.53
1530.93,-210.0
1530.935,-210.0
1530.94,-210.0
1530.945,-210.0
1530.95,-85.25
1530.955,-210.0
1530.96,-210.0
1530.965,-91.53
1530.97,-85.25
1530.975,-86.76
1530.98,-210.0
1530.985,-210.0
1530.99,-83.4
1530.995,-210.0
1531.0,-210.0
1531.005,-210.0
1531.01,-210.0
1531.015,-210.0
1531.02,-210.0
1531.025,-97.55
1531.03,-88.52
1531.035,-86.09
1531.04,-86.76
1531.045,-87.55
1531.05,-85.79
1531.055,-85.0
1531.06,-85.0
1531.065,-89.1
1531.07,-210.0
1531.075,-88.01
1531.08,-82.5
1531.085,-83.75
1531.09,-210.0
1531.095,-85.79
1531.1,-82.78
1531.105,-91.53
1531.11,-210.0
1531.115,-210.0
1531.12,-210.0
1531.125,-210.0
1531.13,-210.0
1531.135,-91.53
1531.14,-87.55
1531.145,-88.52
1531.15,-210.0
1531.155,-210.0
1531.16,-210.0
1531.165,-84.54
1531.17,-84.54
1531.175,-88.52
1531.18,-210.0
1531.185,-83.24
1531.19,-84.33
1531.195,-84.54
1531.2,-84.54
1531.205,-87.14
1531.21,-82.93
1531.215,-83.75
1531.22,-210.0
1531.225,-210.0
1531.23,-90.56
1531.235,-91.53
1531.24,-88.01
1531.245,-210.0
1531.25,-83.08
1531.255,-92.78
1531.26,-210.0
1531.265,-210.0
1531.27,-210.0
1531.275,-210.0
1531.28,-97.55
1531.285,-83.24
1531.29,-82.78
1531.295,-86.09
1531.3,-86.09
1531.305,-82.37
1531.31,-83.75
1531.315,-85.25
1531.32,-87.14
1531.325,-210.0
1531.33,-210.0
1531.335,-82.24
1531.34,-81.32
1531.345,-87.55
1531.35,-210.0
1531.355,-210.0
1531.36,-210.0
1531.365,-210.0
1531.37,-210.0
1531.375,-210.0
1531.38,-210.0
1531.385,-210.0
1531.39,-210.0
1531.395,-210.0
1531.4,-210.0
1531.405,-210.0
1531.41,-210.0
1531.415,-97.55
1531.42,-85.8
1531.425,-210.0
1531.43,-210.0
1531.435,-210.0
1531.44,-210.0
1531.445,-210.0
1531.45,-92.79
1531.455,-82.25
1531.46,-88.53
1531.465,-83.41
1531.47,-83.09
1531.475,-83.59
1531.48,-85.52
1531.485,-210.0
1531.49,-210.0
1531.495,-210.0
1531.5,-210.0
1531.505,-210.0
1531.51,-210.0
1531.515,-85.01
1531.52,-87.56
1531.525,-210.0
1531.53,-210.0
1531.535,-97.56
1531.54,-210.0
1531.545,-210.0
1531.55,-210.0
1531.555,-210.0
1531.56,-210.0
1531.565,-210.0
1531.57,-86.1
1531.575,-84.14
1531.58,-82.94
1531.585,-210.0
1531.59,-91.54
1531.595,-82.79
1531.6,-97.56
1531.605,-210.0
1531.61,-210.0
1531.615,-88.53
1531.62,-89.78
1531.625,-210.0
1531.63,-210.0
1531.635,-210.0
1531.64,-210.0
1531.645,-210.0
1531.65,-210.0
1531.655,-87.56
1531.66,-82.51
1531.665,-83.59
1531.67,-210.0
1531.675,-210.0
1531.68,-210.0
1531.685,-210.0
1531.69,-88.02
1531.695,-85.52
1531.7,-210.0
1531.705,-86.43
1531.71,-84.14
1531.715,-81.88
1531.72,-84.34
1531.725,-92.79
1531.73,-84.34
1531.735,-82.79
1531.74,-81.65
1531.745,-84.78
1531.75,-210.0
1531.755,-210.0
1531.76,-210.0
1531.765,-83.41
1531.77,-80.57
1531.775,-88.53
1531.78,-210.0
1531.785,-94.55
1531.79,-210.0
1531.795,-88.02
1531.8,-210.0
1531.805,-90.57
1531.81,-87.15
1531.815,-87.56
1531.82,-210.0
1531.825,-210.0
1531.83,-210.0
1531.835,-85.01
1531.84,-81.54
1531.845,-81.65
1531.85,-82.25
1531.855,-84.55
1531.86,-84.34
1531.865,-94.55
1531.87,-82.38
1531.875,-81.44
1531.88,-82.25
1531.885,-82.38
1531.89,-84.55
1531.895,-82.25
1531.9,-83.76
1531.905,-210.0
1531.91,-97.56
1531.915,-88.53
1531.92,-83.25
1531.925,-92.79
1531.93,-88.53
1531.935,-83.59
1531.94,-82.51
1531.945,-210.0
1531.95,-210.0
1531.955,-85.26
1531.96,-210.0
1531.965,-210.0
1531.97,-210.0
1531.975,-210.0
1531.98,-210.0
1531.985,-210.0
1531.99,-91.54
1531.995,-210.0
1532.0,-210.0
1532.005,-210.0
1532.01,-97.56
1532.015,-210.0
1532.02,-210.0
1532.025,-88.02
1532.03,-83.41
1532.035,-94.55
1532.04,-210.0
1532.045,-86.43
1532.05,-210.0
1532.055,-210.0
1532.06,-210.0
1532.065,-210.0
1532.07,-210.0
1532.075,-210.0
1532.08,-91.54
1532.085,-94.55
1532.09,-89.78
1532.095,-210.0
1532.1,-90.57
1532.105,-210.0
1532.11,-210.0
1532.115,-89.78
1532.12,-85.8
1532.125,-85.8
1532.13,-84.34
1532.135,-97.56
1532.14,-88.53
1532.145,-97.56
1532.15,-97.56
1532.155,-210.0
1532.16,-210.0
1532.165,-210.0
1532.17,-84.55
1532.175,-83.41
1532.18,-82.25
1532.185,-85.8
1532.19,-86.43
1532.195,-88.53
1532.2,-210.0
1532.205,-210.0
1532.21,-210.0
1532.215,-84.78
1532.22,-91.54
1532.225,-210.0
1532.23,-210.0
1532.235,-210.0
1532.24,-210.0
1532.245,-87.56
1532.25,-86.43
1532.255,-210.0
1532.26,-210.0
1532.265,-210.0
1532.27,-88.53
1532.275,-85.26
1532.28,-85.26
1532.285,-82.51
1532.29,-83.76
1532.295,-81.88
1532.3,-81.77
1532.305,-81.33
1532.31,-94.55
1532.315,-210.0
1532.32,-210.0
1532.325,-210.0
1532.33,-210.0
1532.335,-210.0
1532.34,-90.57
1532.345,-90.57
1532.35,-88.53
1532.355,-82.25
1532.36,-83.76
1532.365,-88.53
1532.37,-86.77
1532.375,-210.0
1532.38,-210.0
1532.385,-85.52
1532.39,-210.0
1532.395,-210.0
1532.4,-210.0
1532.405,-94.55
1532.41,-210.0
1532.415,-210.0
1532.42,-210.0
1532.425,-97.55
1532.43,-210.0
1532.435,-90.56
1532.44,-86.76
1532.445,-210.0
1532.45,-83.58
1532.455,-81.99
1532.46,-210.0
1532.465,-210.0
1532.47,-210.0
1532.475,-97.55
1532.48,-210.0
1532.485,-210.0
1532.49,-210.0
1532.495,-210.0
1532.5,-210.0
1532.505,-210.0
1532.51,-210.0
1532.515,-210.0
1532.52,-84.77
1532.525,-92.78
1532.53,-86.42
1532.535,-84.33
1532.54,-210.0
1532.545,-210.0
1532.55,-210.0
1532.555,-82.78
1532.56,-85.79
1532.565,-90.56
1532.57,-210.0
1532.575,-210.0
1532.58,-210.0
1532.585,-210.0
1532.59,-210.0
1532.595,-210.0
1532.6,-210.0
1532.605,-94.54
1532.61,-210.0
1532.615,-210.0
1532.62,-85.25
1532.625,-83.75
1532.63,-92.78
1532.635,-81.76
1532.64,-79.7
1532.645,-86.42
1532.65,-210.0
1532.655,-210.0
1532.66,-90.56
1532.665,-89.1
1532.67,-94.54
1532.675,-86.76
1532.68,-210.0
1532.685,-210.0
1532.69,-210.0
1532.695,-210.0
1532.7,-210.0
1532.705,-89.77
1532.71,-210.0
1532.715,-84.54
1532.72,-81.43
1532.725,-81.32
1532.73,-81.53
1532.735,-83.4
1532.74,-83.75
1532.745,-86.09
1532.75,-83.75
1532.755,-210.0
1532.76,-210.0
1532.765,-210.0
1532.77,-92.78
1532.775,-94.54
1532.78,-210.0
1532.785,-91.53
1532.79,-210.0
1532.795,-83.08
1532.8,-85.0
1532.805,-85.25
1532.81,-85.51
1532.815,-210.0
1532.82,-210.0
1532.825,-210.0
1532.83,-210.0
1532.835,-94.54
1532.84,-85.25
1532.845,-87.55
1532.85,-210.0
1532.855,-87.55
1532.86,-94.54
1532.865,-87.14
1532.87,-85.51
1532.875,-83.4
1532.88,-91.53
1532.885,-94.54
1532.89,-86.09
1532.895,-83.58
1532.9,-90.56
1532.905,-210.0
1532.91,-210.0
1532.915,-94.54
1532.92,-88.52
1532.925,-89.77
1532.93,-94.54
1532.935,-210.0
1532.94,-85.79
1532.945,-84.13
1532.95,-210.0
1532.955,-210.0
1532.96,-210.0
1532.965,-86.76
1532.97,-90.56
1532.975,-88.01
1532.98,-86.42
1532.985,-83.58
1532.99,-81.87
1532.995,-80.56
1533.0,-88.52
1533.005,-210.0
1533.01,-210.0
1533.015,-210.0
1533.02,-210.0
1533.025,-88.01
1533.03,-80.83
1533.035,-83.4
1533.04,-85.0
1533.045,-86.42
1533.05,-85.51
1533.055,-86.42
1533.06,-92.78
1533.065,-210.0
1533.07,-210.0
1533.075,-210.0
1533.08,-210.0
1533.085,-210.0
1533.09,-210.0
1533.095,-210.0
1533.1,-85.25
1533.105,-82.93
1533.11,-210.0
1533.115,-210.0
1533.12,-85.79
1533.125,-83.08
1533.13,-84.13
1533.135,-88.01
1533.14,-210.0
1533.145,-94.54
1533.15,-83.08
1533.155,-83.08
1533.16,-210.0
1533.165,-210.0
1533.17,-210.0
1533.175,-210.0
1533.18,-210.0
1533.185,-210.0
1533.19,-85.0
1533.195,-210.0
1533.2,-210.0
1533.205,-210.0
1533.21,-86.09
1533.215,-210.0
1533.22,-210.0
1533.225,-210.0
1533.23,-210.0
1533.235,-210.0
1533.24,-90.56
1533.245,-210.0
1533.25,-210.0
1533.255,-210.0
1533.26,-210.0
1533.265,-210.0
1533.27,-87.55
1533.275,-83.58
1533.28,-86.76
1533.285,-90.56
1533.29,-210.0
1533.295,-210.0
1533.3,-210.0
1533.305,-85.51
1533.31,-81.53
1533.315,-85.0
1533.32,-210.0
1533.325,-210.0
1533.33,-210.0
1533.335,-210.0
1533.34,-83.4
1533.345,-80.07
1533.35,-85.51
1533.355,-210.0
1533.36,-210.0
1533.365,-94.54
1533.37,-86.42
1533.375,-86.76
1533.38,-210.0
1533.385,-97.55
1533.39,-88.01
1533.395,-210.0
1533.4,-210.0
1533.405,-210.0
1533.41,-210.0
1533.415,-210.0
1533.42,-210.0
1533.425,-210.0
1533.43,-210.0
1533.435,-210.0
1533.44,-210.0
1533.445,-210.0
1533.45,-210.0
1533.455,-210.0
1533.46,-210.0
1533.465,-210.0
1533.47,-210.0
1533.475,-210.0
1533.48,-89.78
1533.485,-85.52
1533.49,-91.54
1533.495,-90.57
1533.5,-89.11
1533.505,-210.0
1533.51,-210.0
1533.515,-210.0
1533.52,-92.79
1533.525,-83.41
1533.53,-88.53
1533.535,-210.0
1533.54,-210.0
1533.545,-210.0
1533.55,-210.0
1533.555,-210.0
1533.56,-210.0
1533.565,-87.15
1533.57,-83.41
1533.575,-86.43
1533.58,-210.0
1533.585,-210.0
1533.59,-90.57
1533.595,-84.34
1533.6,-89.78
1533.605,-210.0
1533.61,-84.34
1533.615,-82.38
1533.62,-84.14
1533.625,-81.88
1533.63,-87.56
1533.635,-210.0
1533.64,-210.0
1533.645,-84.34
1533.65,-82.94
1533.655,-85.8
1533.66,-210.0
1533.665,-210.0
1533.67,-92.79
1533.675,-85.26
1533.68,-87.56
1533.685,-210.0
1533.69,-210.0
1533.695,-85.01
1533.7,-91.54
1533.705,-88.53
1533.71,-210.0
1533.715,-210.0
1533.72,-210.0
1533.725,-210.0
1533.73,-210.0
1533.735,-210.0
1533.74,-210.0
1533.745,-88.53
1533.75,-89.78
1533.755,-90.57
1533.76,-85.01
1533.765,-85.8
1533.77,-210.0
1533.775,-210.0
1533.78,-94.55
1533.785,-90.57
1533.79,-210.0
1533.795,-85.26
1533.8,-87.56
1533.805,-210.0
1533.81,-210.0
1533.815,-210.0
1533.82,-210.0
1533.825,-210.0
1533.83,-91.54
1533.835,-84.14
1533.84,-210.0
1533.845,-84.55
1533.85,-83.09
1533.855,-87.56
1533.86,-210.0
1533.865,-85.52
1533.87,-210.0
1533.875,-210.0
1533.88,-89.78
1533.885,-82.94
1533.89,-90.57
1533.895,-90.57
1533.9,-210.0
1533.905,-86.43
1533.91,-87.15
1533.915,-87.56
1533.92,-210.0
1533.925,-97.56
1533.93,-86.43
1533.935,-80.01
1533.94,-80.94
1533.945,-85.26
1533.95,-85.01
1533.955,-85.01
1533.96,-86.43
1533.965,-81.77
1533.97,-86.77
1533.975,-210.0
1533.98,-210.0
1533.985,-83.41
1533.99,-80.66
1533.995,-84.78
1534.0,-94.55
1534.005,-91.54
1534.01,-210.0
1534.015,-90.57
1534.02,-210.0
1534.025,-210.0
1534.03,-210.0
1534.035,-86.43
1534.04,-82.79
1534.045,-86.77
1534.05,-88.02
1534.055,-89.11
1534.06,-210.0
1534.065,-87.56
1534.07,-83.76
1534.075,-86.1
1534.08,-210.0
1534.085,-210.0
1534.09,-210.0
1534.095,-210.0
1534.1,-210.0
1534.105,-84.34
1534.11,-85.01
1534.115,-85.01
1534.12,-84.55
1534.125,-210.0
1534.13,-210.0
1534.135,-210.0
1534.14,-210.0
1534.145,-210.0
1534.15,-210.0
1534.155,-210.0
1534.16,-210.0
1534.165,-210.0
1534.17,-210.0
1534.175,-94.55
1534.18,-210.0
1534.185,-85.52
1534.19,-87.15
1534.195,-84.78
1534.2,-92.79
1534.205,-85.01
1534.21,-82.51
1534.215,-82.38
1534.22,-82.25
1534.225,-82.0
1534.23,-85.01
1534.235,-92.79
1534.24,-86.77
1534.245,-210.0
1534.25,-210.0
1534.255,-86.77
1534.26,-84.34
1534.265,-91.54
1534.27,-210.0
1534.275,-97.56
1534.28,-90.57
1534.285,-210.0
1534.29,-210.0
1534.295,-82.25
1534.3,-80.75
1534.305,-84.34
1534.31,-82.25
1534.315,-88.53
1534.32,-210.0
1534.325,-210.0
1534.33,-210.0
1534.335,-210.0
1534.34,-210.0
1534.345,-97.56
1534.35,-210.0
1534.355,-90.57
1534.36,-94.55
1534.365,-210.0
1534.37,-210.0
1534.375,-88.53
1534.38,-210.0
1534.385,-83.09
1534.39,-81.88
1534.395,-85.01
1534.4,-90.57
1534.405,-94.55
1534.41,-89.78
1534.415,-210.0
1534.42,-88.54
1534.425,-83.77
1534.43,-83.6
1534.435,-210.0
1534.44,-210.0
1534.445,-210.0
1534.45,-210.0
1534.455,-210.0
1534.46,-210.0
1534.465,-210.0
1534.47,-210.0
1534.475,-210.0
1534.48,-210.0
1534.485,-210.0
1534.49,-210.0
1534.495,-94.56
1534.5,-210.0
1534.505,-210.0
1534.51,-210.0
1534.515,-210.0
1534.52,-86.44
1534.525,-210.0
1534.53,-210.0
1534.535,-84.35
1534.54,-82.95
1534.545,-83.77
1534.55,-210.0
1534.555,-210.0
1534.56,-210.0
1534.565,-91.55
1534.57,-83.77
1534.575,-83.26
1534.58,-210.0
1534.585,-210.0
1534.59,-86.78
1534.595,-83.77
1534.6,-210.0
1534.605,-210.0
1534.61,-210.0
1534.615,-210.0
1534.62,-92.8
1534.625,-210.0
1534.63,-210.0
1534.635,-86.78
1534.64,-84.15
1534.645,-210.0
1534.65,-88.54
1534.655,-87.57
1534.66,-85.53
1534.665,-97.57
1534.67,-210.0
1534.675,-210.0
1534.68,-210.0
1534.685,-94.56
1534.69,-92.8
1534.695,-210.0
1534.7,-84.79
1534.705,-84.56
1534.71,-87.16
1534.715,-210.0
1534.72,-210.0
1534.725,-210.0
1534.73,-210.0
1534.735,-210.0
1534.74,-210.0
1534.745,-210.0
1534.75,-92.8
1534.755,-91.55
1534.76,-210.0
1534.765,-92.8
1534.77,-210.0
1534.775,-210.0
1534.78,-91.55
1534.785,-210.0
1534.79,-210.0
1534.795,-97.57
1534.8,-210.0
1534.805,-210.0
1534.81,-210.0
1534.815,-210.0
1534.82,-210.0
1534.825,-210.0
1534.83,-210.0
1534.835,-94.56
1534.84,-86.44
1534.845,-84.79
1534.85,-87.57
1534.855,-91.55
1534.86,-84.35
1534.865,-81.66
1534.87,-82.13
1534.875,-82.39
1534.88,-82.39
1534.885,-83.77
1534.89,-210.0
1534.895,-210.0
1534.9,-210.0
1534.905,-210.0
1534.91,-210.0
1534.915,-210.0
1534.92,-84.35
1534.925,-80.85
1534.93,-83.42
1534.935,-94.56
1534.94,-86.11
1534.945,-85.02
1534.95,-94.56
1534.955,-210.0
1534.96,-210.0
1534.965,-210.0
1534.97,-210.0
1534.975,-210.0
1534.98,-210.0
1534.985,-210.0
1534.99,-210.0
1534.995,-210.0
1535.0,-83.6
1535.005,-88.54
1535.01,-88.03
1535.015,-210.0
1535.02,-94.56
1535.025,-210.0
1535.03,-210.0
1535.035,-210.0
1535.04,-210.0
1535.045,-210.0
1535.05,-210.0
1535.055,-210.0
1535.06,-88.03
1535.065,-89.79
1535.07,-210.0
1535.075,-210.0
1535.08,-94.56
1535.085,-88.54
1535.09,-210.0
1535.095,-86.44
1535.1,-210.0
1535.105,-210.0
1535.11,-210.0
1535.115,-210.0
1535.12,-210.0
1535.125,-210.0
1535.13,-85.02
1535.135,-94.56
1535.14,-210.0
1535.145,-90.58
1535.15,-85.27
1535.155,-89.79
1535.16,-88.54
1535.165,-210.0
1535.17,-97.57
1535.175,-88.03
1535.18,-80.09
1535.185,-80.67
1535.19,-82.01
1535.195,-82.26
1535.2,-86.44
1535.205,-88.54
1535.21,-88.54
1535.215,-92.8
1535.22,-83.77
1535.225,-86.11
1535.23,-86.78
1535.235,-87.57
1535.24,-92.8
1535.245,-83.1
1535.25,-82.95
1535.255,-91.55
1535.26,-84.35
1535.265,-88.54
1535.27,-88.03
1535.275,-84.15
1535.28,-82.8
1535.285,-83.77
1535.29,-94.56
1535.295,-210.0
1535.3,-210.0
1535.305,-210.0
1535.31,-210.0
1535.315,-210.0
1535.32,-89.12
1535.325,-210.0
1535.33,-210.0
1535.335,-210.0
1535.34,-210.0
1535.345,-94.56
1535.35,-85.27
1535.355,-210.0
1535.36,-210.0
1535.365,-210.0
1535.37,-86.78
1535.375,-84.35
1535.38,-86.44
1535.385,-210.0
1535.39,-210.0
1535.395,-210.0
1535.4,-210.0
1535.405,-89.79
1535.41,-210.0
1535.415,-94.56
1535.42,-84.8
1535.425,-88.55
1535.43,-97.58
1535.435,-83.61
1535.44,-210.0
1535.445,-210.0
1535.45,-86.12
1535.455,-92.81
1535.46,-210.0
1535.465,-210.0
1535.47,-210.0
1535.475,-210.0
1535.48,-97.58
1535.485,-80.59
1535.49,-81.25
1535.495,-83.61
1535.5,-210.0
1535.505,-86.79
1535.51,-85.54
1535.515,-82.81
1535.52,-82.14
1535.525,-84.16
1535.53,-85.82
1535.535,-210.0
1535.54,-210.0
1535.545,-85.28
1535.55,-83.11
1535.555,-94.57
1535.56,-210.0
1535.565,-210.0
1535.57,-86.12
1535.575,-87.58
1535.58,-86.79
1535.585,-210.0
1535.59,-210.0
1535.595,-83.11
1535.6,-210.0
1535.605,-210.0
1535.61,-210.0
1535.615,-94.57
1535.62,-81.25
1535.625,-82.27
1535.63,-84.57
1535.635,-86.45
1535.64,-210.0
1535.645,-92.81
1535.65,-94.57
1535.655,-210.0
1535.66,-210.0
1535.665,-210.0
1535.67,-210.0
1535.675,-210.0
1535.68,-210.0
1535.685,-210.0
1535.69,-88.04
1535.695,-85.54
1535.7,-210.0
1535.705,-210.0
1535.71,-85.03
1535.715,-82.27
1535.72,-89.8
1535.725,-210.0
1535.73,-210.0
1535.735,-91.56
1535.74,-210.0
1535.745,-210.0
1535.75,-91.56
1535.755,-86.79
1535.76,-210.0
1535.765,-210.0
1535.77,-210.0
1535.775,-94.57
1535.78,-210.0
1535.785,-210.0
1535.79,-210.0
1535.795,-92.81
1535.8,-91.56
1535.805,-210.0
1535.81,-210.0
1535.815,-210.0
1535.82,-210.0
1535.825,-210.0
1535.83,-210.0
1535.835,-210.0
1535.84,-210.0
1535.845,-210.0
1535.85,-86.45
1535.855,-84.57
1535.86,-82.53
1535.865,-82.96
1535.87,-88.55
1535.875,-81.05
1535.88,-80.77
1535.885,-82.27
1535.89,-81.79
1535.895,-89.8
1535.9,-210.0
1535.905,-80.96
1535.91,-82.02
1535.915,-210.0
1535.92,-210.0
1535.925,-88.55
1535.93,-210.0
1535.935,-210.0
1535.94,-210.0
1535.945,-210.0
1535.95,-210.0
1535.955,-210.0
1535.96,-210.0
1535.965,-210.0
1535.97,-210.0
1535.975,-210.0
1535.98,-210.0
1535.985,-83.61
1535.99,-81.05
1535.995,-82.81
1536.0,-88.55
1536.005,-85.28
1536.01,-84.8
1536.015,-92.81
1536.02,-87.58
1536.025,-85.28
1536.03,-84.16
1536.035,-210.0
1536.04,-210.0
1536.045,-210.0
1536.05,-210.0
1536.055,-210.0
1536.06,-85.82
1536.065,-87.17
1536.07,-210.0
1536.075,-83.78
1536.08,-210.0
1536.085,-210.0
1536.09,-210.0
1536.095,-82.53
1536.1,-80.68
1536.105,-81.56
1536.11,-81.79
1536.115,-83.11
1536.12,-89.13
1536.125,-210.0
1536.13,-210.0
1536.135,-210.0
1536.14,-210.0
1536.145,-92.81
1536.15,-87.17
1536.155,-210.0
1536.16,-210.0
1536.165,-210.0
1536.17,-210.0
1536.175,-83.43
1536.18,-80.26
1536.185,-86.12
1536.19,-94.57
1536.195,-84.8
1536.2,-89.8
1536.205,-210.0
1536.21,-210.0
1536.215,-210.0
1536.22,-210.0
1536.225,-88.55
1536.23,-83.27
1536.235,-89.8
1536.24,-90.59
1536.245,-84.36
1536.25,-82.14
1536.255,-89.8
1536.26,-210.0
1536.265,-88.55
1536.27,-85.03
1536.275,-85.54
1536.28,-84.8
1536.285,-82.27
1536.29,-81.46
1536.295,-84.16
1536.3,-82.53
1536.305,-210.0
1536.31,-210.0
1536.315,-210.0
1536.32,-84.57
1536.325,-81.35
1536.33,-82.27
1536.335,-94.57
1536.34,-86.79
1536.345,-81.35
1536.35,-80.03
1536.355,-83.43
1536.36,-81.79
1536.365,-80.51
1536.37,-84.57
1536.375,-86.79
1536.38,-210.0
1536.385,-210.0
1536.39,-91.56
1536.395,-210.0
1536.4,-210.0
1536.405,-210.0
1536.41,-210.0
1536.415,-210.0
1536.42,-210.0
1536.425,-210.0
1536.43,-89.8
1536.435,-97.58
1536.44,-87.58
1536.445,-90.59
1536.45,-94.57
1536.455,-210.0
1536.46,-210.0
1536.465,-210.0
1536.47,-210.0
1536.475,-210.0
1536.48,-94.57
1536.485,-89.8
1536.49,-83.78
1536.495,-210.0
1536.5,-210.0
1536.505,-210.0
1536.51,-210.0
1536.515,-81.46
1536.52,-80.96
1536.525,-81.67
1536.53,-80.68
1536.535,-84.16
1536.54,-210.0
1536.545,-210.0
1536.55,-210.0
1536.555,-210.0
1536.56,-210.0
1536.565,-210.0
1536.57,-210.0
1536.575,-210.0
1536.58,-210.0
1536.585,-89.8
1536.59,-94.57
1536.595,-210.0
1536.6,-210.0
1536.605,-210.0
1536.61,-210.0
1536.615,-81.15
1536.62,-81.56
1536.625,-84.36
1536.63,-83.97
1536.635,-86.12
1536.64,-84.16
1536.645,-86.79
1536.65,-82.27
1536.655,-80.59
1536.66,-92.81
1536.665,-94.57
1536.67,-83.78
1536.675,-89.13
1536.68,-87.58
1536.685,-86.12
1536.69,-210.0
1536.695,-97.58
1536.7,-89.8
1536.705,-210.0
1536.71,-210.0
1536.715,-94.57
1536.72,-81.9
1536.725,-80.26
1536.73,-86.12
1536.735,-85.54
1536.74,-85.03
1536.745,-97.58
1536.75,-210.0
1536.755,-210.0
1536.76,-210.0
1536.765,-210.0
1536.77,-210.0
1536.775,-210.0
1536.78,-210.0
1536.785,-84.36
1536.79,-86.79
1536.795,-92.81
1536.8,-84.8
1536.805,-88.55
1536.81,-210.0
1536.815,-83.43
1536.82,-81.05
1536.825,-87.17
1536.83,-210.0
1536.835,-82.53
1536.84,-84.8
1536.845,-83.78
1536.85,-85.03
1536.855,-210.0
1536.86,-210.0
1536.865,-210.0
1536.87,-210.0
1536.875,-210.0
1536.88,-210.0
1536.885,-210.0
1536.89,-210.0
1536.895,-210.0
1536.9,-92.81
1536.905,-210.0
1536.91,-210.0
1536.915,-84.8
1536.92,-87.58
1536.925,-210.0
1536.93,-88.55
1536.935,-210.0
1536.94,-210.0
1536.945,-210.0
1536.95,-210.0
1536.955,-91.56
1536.96,-94.57
1536.965,-210.0
1536.97,-210.0
1536.975,-90.59
1536.98,-210.0
1536.985,-85.03
1536.99,-83.78
1536.995,-210.0
1537.0,-210.0
1537.005,-83.78
1537.01,-83.78
1537.015,-210.0
1537.02,-88.55
1537.025,-82.67
1537.03,-86.12
1537.035,-85.03
1537.04,-84.57
1537.045,-94.57
1537.05,-210.0
1537.055,-210.0
1537.06,-210.0
1537.065,-210.0
1537.07,-81.35
1537.075,-83.11
1537.08,-210.0
1537.085,-210.0
1537.09,-87.58
1537.095,-88.55
1537.1,-210.0
1537.105,-210.0
1537.11,-210.0
1537.115,-210.0
1537.12,-210.0
1537.125,-83.78
1537.13,-88.55
1537.135,-86.79
1537.14,-210.0
1537.145,-210.0
1537.15,-85.03
1537.155,-85.54
1537.16,-83.27
1537.165,-91.56
1537.17,-210.0
1537.175,-210.0
1537.18,-210.0
1537.185,-210.0
1537.19,-86.79
1537.195,-91.56
1537.2,-210.0
1537.205,-86.79
1537.21,-86.12
1537.215,-210.0
1537.22,-210.0
1537.225,-210.0
1537.23,-210.0
1537.235,-210.0
1537.24,-83.78
1537.245,-89.8
1537.25,-210.0
1537.255,-210.0
1537.26,-210.0
1537.265,-86.12
1537.27,-210.0
1537.275,-210.0
1537.28,-210.0
1537.285,-83.27
1537.29,-85.54
1537.295,-89.8
1537.3,-210.0
1537.305,-91.56
1537.31,-90.59
1537.315,-86.12
1537.32,-210.0
1537.325,-89.8
1537.33,-83.78
1537.335,-84.36
1537.34,-210.0
1537.345,-210.0
1537.35,-90.59
1537.355,-84.16
1537.36,-86.45
1537.365,-85.82
1537.37,-85.03
1537.375,-83.78
1537.38,-87.17
1537.385,-87.58
1537.39,-87.17
1537.395,-90.59
1537.4,-210.0
1537.405,-210.0
1537.41,-210.0
1537.415,-210.0
1537.42,-210.0
1537.425,-94.57
1537.43,-210.0
1537.435,-210.0
1537.44,-210.0
1537.445,-210.0
1537.45,-85.82
1537.455,-210.0
1537.46,-210.0
1537.465,-210.0
1537.47,-210.0
1537.475,-210.0
1537.48,-91.56
1537.485,-210.0
1537.49,-85.54
1537.495,-81.46
1537.5,-81.79
1537.505,-83.11
1537.51,-85.82
1537.515,-86.79
1537.52,-210.0
1537.525,-210.0
1537.53,-94.57
1537.535,-82.02
1537.54,-91.56
1537.545,-210.0
1537.55,-83.78
1537.555,-85.03
1537.56,-90.59
1537.565,-210.0
1537.57,-210.0
1537.575,-210.0
1537.58,-210.0
1537.585,-88.55
1537.59,-210.0
1537.595,-210.0
1537.6,-210.0
1537.605,-90.59
1537.61,-84.16
1537.615,-81.79
1537.62,-86.79
1537.625,-210.0
1537.63,-210.0
1537.635,-210.0
1537.64,-210.0
1537.645,-82.27
1537.65,-83.78
1537.655,-87.58
1537.66,-85.03
1537.665,-210.0
1537.67,-210.0
1537.675,-210.0
1537.68,-86.12
1537.685,-210.0
1537.69,-210.0
1537.695,-210.0
1537.7,-210.0
1537.705,-210.0
1537.71,-84.57
1537.715,-210.0
1537.72,-210.0
1537.725,-210.0
1537.73,-210.0
1537.735,-88.04
1537.74,-210.0
1537.745,-89.13
1537.75,-83.43
1537.755,-89.8
1537.76,-84.36
1537.765,-82.27
1537.77,-87.17
1537.775,-210.0
1537.78,-210.0
1537.785,-210.0
1537.79,-91.56
1537.795,-89.8
1537.8,-88.04
1537.805,-84.36
1537.81,-90.59
1537.815,-210.0
1537.82,-92.81
1537.825,-85.82
1537.83,-83.27
1537.835,-81.56
1537.84,-81.56
1537.845,-82.02
1537.85,-80.77
1537.855,-80.96
1537.86,-82.96
1537.865,-88.04
1537.87,-85.82
1537.875,-210.0
1537.88,-87.17
1537.885,-210.0
1537.89,-210.0
1537.895,-210.0
1537.9,-210.0
1537.905,-210.0
1537.91,-210.0
1537.915,-210.0
1537.92,-97.58
1537.925,-85.54
1537.93,-85.28
1537.935,-88.55
1537.94,-85.54
1537.945,-86.79
1537.95,-210.0
1537.955,-210.0
1537.96,-210.0
1537.965,-210.0
1537.97,-94.57
1537.975,-210.0
1537.98,-210.0
1537.985,-86.45
1537.99,-94.57
1537.995,-210.0
1538.0,-210.0
1538.005,-210.0
1538.01,-210.0
1538.015,-97.58
1538.02,-85.03
1538.025,-94.57
1538.03,-210.0
1538.035,-210.0
1538.04,-91.56
1538.045,-210.0
1538.05,-210.0
1538.055,-210.0
1538.06,-88.55
1538.065,-85.03
1538.07,-83.97
1538.075,-82.81
1538.08,-82.14
1538.085,-81.15
1538.09,-88.55
1538.095,-210.0
1538.1,-210.0
1538.105,-210.0
1538.11,-210.0
1538.115,-210.0
1538.12,-85.54
1538.125,-86.45
1538.13,-210.0
1538.135,-94.57
1538.14,-88.04
1538.145,-82.81
1538.15,-83.43
1538.155,-88.04
1538.16,-210.0
1538.165,-210.0
1538.17,-210.0
1538.175,-210.0
1538.18,-88.55
1538.185,-210.0
1538.19,-210.0
1538.195,-210.0
1538.2,-210.0
1538.205,-210.0
1538.21,-210.0
1538.215,-210.0
1538.22,-88.04
1538.225,-87.58
1538.23,-210.0
1538.235,-210.0
1538.24,-210.0
1538.245,-97.58
1538.25,-83.43
1538.255,-83.11
1538.26,-86.79
1538.265,-85.03
1538.27,-83.61
1538.275,-82.81
1538.28,-89.13
1538.285,-88.55
1538.29,-210.0
1538.295,-86.45
1538.3,-82.4
1538.305,-80.86
1538.31,-87.58
1538.315,-210.0
1538.32,-210.0
1538.325,-87.58
1538.33,-82.4
1538.335,-83.61
1538.34,-81.79
1538.345,-82.02
1538.35,-90.59
1538.355,-85.03
1538.36,-91.56
1538.365,-210.0
1538.37,-210.0
1538.375,-210.0
1538.38,-85.28
1538.385,-81.79
1538.39,-81.15
1538.395,-86.45
1538.4,-210.0
1538.405,-210.0
1538.41,-91.56
1538.415,-87.17
1538.42,-84.8
1538.425,-82.03
1538.43,-82.41
1538.435,-86.46
1538.44,-210.0
1538.445,-210.0
1538.45,-210.0
1538.455,-210.0
1538.46,-81.57
1538.465,-83.79
1538.47,-210.0
1538.475,-210.0
1538.48,-85.55
1538.485,-87.59
1538.49,-86.13
1538.495,-92.82
1538.5,-210.0
1538.505,-210.0
1538.51,-210.0
1538.515,-210.0
1538.52,-84.17
1538.525,-210.0
1538.53,-210.0
1538.535,-210.0
1538.54,-86.46
1538.545,-83.79
1538.55,-210.0
1538.555,-210.0
1538.56,-210.0
1538.565,-210.0
1538.57,-88.05
1538.575,-88.05
1538.58,-210.0
1538.585,-210.0
1538.59,-210.0
1538.595,-210.0
1538.6,-210.0
1538.605,-210.0
1538.61,-87.59
1538.615,-84.17
1538.62,-86.8
1538.625,-92.82
1538.63,-97.59
1538.635,-210.0
1538.64,-210.0
1538.645,-210.0
1538.65,-210.0
1538.655,-94.58
1538.66,-210.0
1538.665,-210.0
1538.67,-210.0
1538.675,-89.81
1538.68,-89.81
1538.685,-86.8
1538.69,-210.0
1538.695,-88.56
1538.7,-88.05
1538.705,-84.58
1538.71,-85.04
1538.715,-94.58
1538.72,-97.59
1538.725,-91.57
1538.73,-87.59
1538.735,-210.0
1538.74,-210.0
1538.745,-83.62
1538.75,-92.82
1538.755,-210.0
1538.76,-88.56
1538.765,-83.79
1538.77,-210.0
1538.775,-210.0
1538.78,-210.0
1538.785,-94.58
1538.79,-210.0
1538.795,-94.58
1538.8,-97.59
1538.805,-86.8
1538.81,-85.55
1538.815,-89.14
1538.82,-88.05
1538.825,-210.0
1538.83,-210.0
1538.835,-82.97
1538.84,-82.28
1538.845,-85.29
1538.85,-82.28
1538.855,-86.13
1538.86,-84.17
1538.865,-86.46
1538.87,-210.0
1538.875,-210.0
1538.88,-210.0
1538.885,-210.0
1538.89,-210.0
1538.895,-210.0
1538.9,-86.13
1538.905,-94.58
1538.91,-85.04
1538.915,-83.44
1538.92,-88.05
1538.925,-92.83
1538.93,-210.0
1538.935,-210.0
1538.94,-85.56
1538.945,-82.16
1538.95,-82.83
1538.955,-86.14
1538.96,-210.0
1538.965,-210.0
1538.97,-210.0
1538.975,-210.0
1538.98,-210.0
1538.985,-210.0
1538.99,-210.0
1538.995,-92.83
1539.0,-210.0
1539.005,-210.0
1539.01,-89.82
1539.015,-85.05
1539.02,-210.0
1539.025,-210.0
1539.03,-87.19
1539.035,-210.0
1539.04,-210.0
1539.045,-94.59
1539.05,-81.07
1539.055,-83.8
1539.06,-210.0
1539.065,-210.0
1539.07,-84.18
1539.075,-84.59
1539.08,-83.13
1539.085,-80.79
1539.09,-84.18
1539.095,-94.59
1539.1,-86.14
1539.105,-210.0
1539.11,-210.0
1539.115,-210.0
1539.12,-210.0
1539.125,-91.58
1539.13,-92.83
1539.135,-210.0
1539.14,-210.0
1539.145,-210.0
1539.15,-210.0
1539.155,-210.0
1539.16,-210.0
1539.165,-210.0
1539.17,-94.59
1539.175,-83.63
1539.18,-86.14
1539.185,-210.0
1539.19,-210.0
1539.195,-210.0
1539.2,-210.0
1539.205,-210.0
1539.21,-210.0
1539.215,-210.0
1539.22,-210.0
1539.225,-210.0
1539.23,-90.61
1539.235,-210.0
1539.24,-210.0
1539.245,-88.57
1539.25,-84.59
1539.255,-91.58
1539.26,-88.06
1539.265,-210.0
1539.27,-210.0
1539.275,-88.06
1539.28,-210.0
1539.285,-210.0
1539.29,-94.59
1539.295,-210.0
1539.3,-210.0
1539.305,-88.06
1539.31,-210.0
1539.315,-92.83
1539.32,-87.19
1539.325,-210.0
1539.33,-210.0
1539.335,-210.0
1539.34,-85.3
1539.345,-82.16
1539.35,-210.0
1539.355,-210.0
1539.36,-85.3
1539.365,-82.55
1539.37,-210.0
1539.375,-210.0
1539.38,-210.0
1539.385,-210.0
1539.39,-88.57
1539.395,-210.0
1539.4,-210.0
1539.405,-210.0
1539.41,-85.56
1539.415,-82.29
1539.42,-82.83
1539.425,-86.82
1539.43,-210.0
1539.435,-86.82
1539.44,-85.06
1539.445,-210.0
1539.45,-210.0
1539.455,-210.0
1539.46,-210.0
1539.465,-97.61
1539.47,-86.48
1539.475,-91.59
1539.48,-92.84
1539.485,-210.0
1539.49,-210.0
1539.495,-91.59
1539.5,-90.62
1539.505,-83.81
1539.51,-97.61
1539.515,-210.0
1539.52,-90.62
1539.525,-83.14
1539.53,-90.62
1539.535,-210.0
1539.54,-210.0
1539.545,-210.0
1539.55,-210.0
1539.555,-210.0
1539.56,-210.0
1539.565,-210.0
1539.57,-210.0
1539.575,-89.83
1539.58,-210.0
1539.585,-210.0
1539.59,-85.85
1539.595,-83.3
1539.6,-94.6
1539.605,-86.82
1539.61,-88.58
1539.615,-210.0
1539.62,-210.0
1539.625,-210.0
1539.63,-92.84
1539.635,-84.39
1539.64,-83.81
1539.645,-94.6
1539.65,-210.0
1539.655,-210.0
1539.66,-85.85
1539.665,-210.0
1539.67,-89.83
1539.675,-82.43
1539.68,-79.98
1539.685,-81.49
1539.69,-83.81
1539.695,-86.48
1539.7,-210.0
1539.705,-210.0
1539.71,-89.83
1539.715,-85.31
1539.72,-86.82
1539.725,-87.61
1539.73,-85.06
1539.735,-91.59
1539.74,-210.0
1539.745,-210.0
1539.75,-90.62
1539.755,-210.0
1539.76,-210.0
1539.765,-90.62
1539.77,-83.3
1539.775,-91.59
1539.78,-82.99
1539.785,-84.6
1539.79,-87.61
1539.795,-88.58
1539.8,-84.83
1539.805,-83.81
1539.81,-210.0
1539.815,-210.0
1539.82,-210.0
1539.825,-210.0
1539.83,-86.82
1539.835,-80.8
1539.84,-80.13
1539.845,-80.13
1539.85,-90.62
1539.855,-210.0
1539.86,-85.57
1539.865,-83.46
1539.87,-84.39
1539.875,-81.59
1539.88,-88.58
1539.885,-210.0
1539.89,-210.0
1539.895,-84.39
1539.9,-86.15
1539.905,-83.46
1539.91,-210.0
1539.915,-210.0
1539.92,-210.0
1539.925,-210.0
1539.93,-88.07
1539.935,-210.0
1539.94,-92.84
1539.945,-87.61
1539.95,-91.59
1539.955,-210.0
1539.96,-85.06
1539.965,-88.07
1539.97,-210.0
1539.975,-210.0
1539.98,-94.6
1539.985,-92.84
1539.99,-94.6
1539.995,-210.0
1540.0,-88.58
1540.005,-81.93
1540.01,-83.81
1540.015,-97.61
1540.02,-94.6
1540.025,-83.14
1540.03,-210.0
1540.035,-210.0
1540.04,-210.0
1540.045,-210.0
1540.05,-210.0
1540.055,-210.0
1540.06,-90.62
1540.065,-82.56
1540.07,-83.46
1540.075,-210.0
1540.08,-210.0
1540.085,-210.0
1540.09,-90.62
1540.095,-81.38
1540.1,-210.0
1540.105,-210.0
1540.11,-82.99
1540.115,-83.81
1540.12,-88.58
1540.125,-210.0
1540.13,-210.0
1540.135,-210.0
1540.14,-210.0
1540.145,-210.0
1540.15,-210.0
1540.155,-86.82
1540.16,-94.6
1540.165,-84.6
1540.17,-82.84
1540.175,-84.83
1540.18,-85.57
1540.185,-91.59
1540.19,-210.0
1540.195,-210.0
1540.2,-210.0
1540.205,-87.61
1540.21,-88.58
1540.215,-97.61
1540.22,-210.0
1540.225,-210.0
1540.23,-80.89
1540.235,-83.81
1540.24,-88.58
1540.245,-82.17
1540.25,-86.48
1540.255,-210.0
1540.26,-210.0
1540.265,-210.0
1540.27,-210.0
1540.275,-85.06
1540.28,-82.56
1540.285,-85.57
1540.29,-210.0
1540.295,-83.64
1540.3,-81.18
1540.305,-82.05
1540.31,-86.15
1540.315,-210.0
1540.32,-210.0
1540.325,-90.62
1540.33,-210.0
1540.335,-210.0
1540.34,-210.0
1540.345,-210.0
1540.35,-85.06
1540.355,-88.58
1540.36,-88.58
1540.365,-84.6
1540.37,-83.81
1540.375,-210.0
1540.38,-210.0
1540.385,-86.48
1540.39,-88.07
1540.395,-86.15
1540.4,-210.0
1540.405,-210.0
1540.41,-210.0
1540.415,-210.0
1540.42,-210.0
1540.425,-210.0
1540.43,-86.49
1540.435,-83.0
1540.44,-89.84
1540.445,-210.0
1540.45,-86.49
1540.455,-88.08
1540.46,-88.08
1540.465,-85.86
1540.47,-91.6
1540.475,-86.83
1540.48,-210.0
1540.485,-210.0
1540.49,-210.0
1540.495,-210.0
1540.5,-210.0
1540.505,-210.0
1540.51,-87.62
1540.515,-87.62
1540.52,-86.83
1540.525,-86.16
1540.53,-83.82
1540.535,-82.18
1540.54,-89.17
1540.545,-210.0
1540.55,-88.59
1540.555,-88.59
1540.56,-210.0
1540.565,-210.0
1540.57,-86.83
1540.575,-210.0
1540.58,-89.84
1540.585,-87.62
1540.59,-210.0
1540.595,-210.0
1540.6,-85.32
1540.605,-210.0
1540.61,-210.0
1540.615,-83.31
1540.62,-82.31
1540.625,-210.0
1540.63,-210.0
1540.635,-210.0
1540.64,-210.0
1540.645,-210.0
1540.65,-94.61
1540.655,-84.2
1540.66,-82.85
1540.665,-85.58
1540.67,-86.16
1540.675,-210.0
1540.68,-210.0
1540.685,-210.0
1540.69,-88.59
1540.695,-210.0
1540.7,-210.0
1540.705,-210.0
1540.71,-91.6
1540.715,-94.61
1540.72,-85.86
1540.725,-87.62
1540.73,-94.61
1540.735,-210.0
1540.74,-210.0
1540.745,-210.0
1540.75,-94.61
1540.755,-210.0
1540.76,-210.0
1540.765,-83.0
1540.77,-210.0
1540.775,-210.0
1540.78,-85.58
1540.785,-81.6
1540.79,-83.15
1540.795,-210.0
1540.8,-210.0
1540.805,-84.84
1540.81,-87.62
1540.815,-210.0
1540.82,-86.83
1540.825,-88.59
1540.83,-210.0
1540.835,-210.0
1540.84,-210.0
1540.845,-210.0
1540.85,-82.31
1540.855,-80.72
1540.86,-84.61
1540.865,-85.58
1540.87,-83.0
1540.875,-81.19
1540.88,-82.44
1540.885,-84.84
1540.89,-83.47
1540.895,-86.83
1540.9,-84.01
1540.905,-81.29
1540.91,-81.83
1540.915,-86.49
1540.92,-86.16
1540.925,-86.83
1540.93,-89.84
1540.935,-210.0
1540.94,-89.17
1540.945,-210.0
1540.95,-210.0
1540.955,-210.0
1540.96,-210.0
1540.965,-210.0
1540.97,-86.16
1540.975,-85.32
1540.98,-82.85
1540.985,-82.85
1540.99,-84.4
1540.995,-210.0
1541.0,-85.86
1541.005,-84.4
1541.01,-210.0
1541.015,-210.0
1541.02,-87.62
1541.025,-84.4
1541.03,-210.0
1541.035,-210.0
1541.04,-210.0
1541.045,-92.85
1541.05,-210.0
1541.055,-210.0
1541.06,-84.4
1541.065,-83.65
1541.07,-210.0
1541.075,-210.0
1541.08,-210.0
1541.085,-91.6
1541.09,-88.59
1541.095,-85.07
1541.1,-94.61
1541.105,-210.0
1541.11,-86.16
1541.115,-85.58
1541.12,-84.61
1541.125,-85.07
1541.13,-83.47
1541.135,-85.86
1541.14,-88.59
1541.145,-84.84
1541.15,-80.14
1541.155,-85.58
1541.16,-210.0
1541.165,-85.86
1541.17,-86.49
1541.175,-210.0
1541.18,-210.0
1541.185,-210.0
1541.19,-210.0
1541.195,-210.0
1541.2,-210.0
1541.205,-210.0
1541.21,-210.0
1541.215,-210.0
1541.22,-210.0
1541.225,-210.0
1541.23,-86.49
1541.235,-210.0
1541.24,-85.07
1541.245,-81.94
1541.25,-87.62
1541.255,-91.6
1541.26,-210.0
1541.265,-92.85
1541.27,-210.0
1541.275,-89.84
1541.28,-210.0
1541.285,-90.63
1541.29,-88.59
1541.295,-91.6
1541.3,-210.0
1541.305,-210.0
1541.31,-86.49
1541.315,-83.65
1541.32,-210.0
1541.325,-87.62
1541.33,-84.4
1541.335,-87.62
1541.34,-210.0
1541.345,-210.0
1541.35,-210.0
1541.355,-210.0
1541.36,-210.0
1541.365,-210.0
1541.37,-87.21
1541.375,-81.39
1541.38,-210.0
1541.385,-210.0
1541.39,-89.84
1541.395,-92.85
1541.4,-89.17
1541.405,-92.85
1541.41,-89.84
1541.415,-87.62
1541.42,-210.0
1541.425,-210.0
1541.43,-86.83
1541.435,-81.94
1541.44,-87.62
1541.445,-88.59
1541.45,-210.0
1541.455,-210.0
1541.46,-83.82
1541.465,-210.0
1541.47,-210.0
1541.475,-88.59
1541.48,-85.58
1541.485,-210.0
1541.49,-210.0
1541.495,-210.0
1541.5,-210.0
1541.505,-210.0
1541.51,-86.16
1541.515,-87.62
1541.52,-210.0
1541.525,-84.84
1541.53,-81.83
1541.535,-94.61
1541.54,-89.84
1541.545,-84.4
1541.55,-89.17
1541.555,-89.84
1541.56,-81.6
1541.565,-82.57
1541.57,-210.0
1541.575,-86.49
1541.58,-210.0
1541.585,-210.0
1541.59,-83.31
1541.595,-83.82
1541.6,-210.0
1541.605,-210.0
1541.61,-210.0
1541.615,-97.62
1541.62,-210.0
1541.625,-210.0
1541.63,-210.0
1541.635,-210.0
1541.64,-85.32
1541.645,-82.85
1541.65,-87.62
1541.655,-92.85
1541.66,-86.16
1541.665,-210.0
1541.67,-86.49
1541.675,-86.16
1541.68,-210.0
1541.685,-210.0
1541.69,-210.0
1541.695,-210.0
1541.7,-94.61
1541.705,-210.0
1541.71,-210.0
1541.715,-86.16
1541.72,-85.32
1541.725,-83.82
1541.73,-85.32
1541.735,-86.49
1541.74,-82.18
1541.745,-83.0
1541.75,-82.06
1541.755,-83.83
1541.76,-94.62
1541.765,-88.09
1541.77,-83.01
1541.775,-83.48
1541.78,-84.85
1541.785,-210.0
1541.79,-210.0
1541.795,-89.85
1541.8,-94.62
1541.805,-210.0
1541.81,-83.16
1541.815,-84.02
1541.82,-210.0
1541.825,-89.18
1541.83,-82.19
1541.835,-83.16
1541.84,-210.0
1541.845,-87.63
1541.85,-210.0
1541.855,-210.0
1541.86,-210.0
1541.865,-90.64
1541.87,-88.09
1541.875,-86.84
1541.88,-84.41
1541.885,-87.63
1541.89,-83.66
1541.895,-82.07
1541.9,-81.95
1541.905,-82.58
1541.91,-85.08
1541.915,-210.0
1541.92,-87.63
1541.925,-210.0
1541.93,-210.0
1541.935,-88.6
1541.94,-85.08
1541.945,-81.2
1541.95,-94.62
1541.955,-210.0
1541.96,-210.0
1541.965,-210.0
1541.97,-210.0
1541.975,-210.0
1541.98,-210.0
1541.985,-210.0
1541.99,-92.86
1541.995,-88.6
1542.0,-88.09
1542.005,-83.83
1542.01,-86.17
1542.015,-210.0
1542.02,-86.17
1542.025,-94.62
1542.03,-86.17
1542.035,-87.63
1542.04,-210.0
1542.045,-210.0
1542.05,-210.0
1542.055,-90.64
1542.06,-210.0
1542.065,-210.0
1542.07,-210.0
1542.075,-210.0
1542.08,-210.0
1542.085,-84.62
1542.09,-210.0
1542.095,-210.0
1542.1,-210.0
1542.105,-88.61
1542.11,-84.63
1542.115,-84.42
1542.12,-210.0
1542.125,-94.63
1542.13,-210.0
1542.135,-210.0
1542.14,-94.63
1542.145,-210.0
1542.15,-210.0
1542.155,-210.0
1542.16,-210.0
1542.165,-83.02
1542.17,-80.92
1542.175,-81.41
1542.18,-84.42
1542.185,-81.21
1542.19,-80.01
1542.195,-83.67
1542.2,-83.49
1542.205,-210.0
1542.21,-210.0
1542.215,-92.87
1542.22,-94.63
1542.225,-97.64
1542.23,-210.0
1542.235,-210.0
1542.24,-210.0
1542.245,-210.0
1542.25,-210.0
1542.255,-88.1
1542.26,-210.0
1542.265,-97.64
1542.27,-83.67
1542.275,-210.0
1542.28,-210.0
1542.285,-90.65
1542.29,-82.2
1542.295,-81.21
1542.3,-83.84
1542.305,-88.1
1542.31,-84.22
1542.315,-82.2
1542.32,-91.62
1542.325,-210.0
1542.33,-86.18
1542.335,-83.84
1542.34,-86.85
1542.345,-210.0
1542.35,-210.0
1542.355,-210.0
1542.36,-210.0
1542.365,-210.0
1542.37,-210.0
1542.375,-83.84
1542.38,-87.23
1542.385,-88.61
1542.39,-83.84
1542.395,-85.88
1542.4,-89.19
1542.405,-89.86
1542.41,-210.0
1542.415,-88.61
1542.42,-210.0
1542.425,-88.62
1542.43,-87.65
1542.435,-210.0
1542.44,-210.0
1542.445,-210.0
1542.45,-210.0
1542.455,-87.65
1542.46,-210.0
1542.465,-210.0
1542.47,-210.0
1542.475,-210.0
1542.48,-210.0
1542.485,-94.64
1542.49,-210.0
1542.495,-210.0
1542.5,-91.63
1542.505,-83.03
1542.51,-210.0
1542.515,-89.87
1542.52,-86.86
1542.525,-210.0
1542.53,-83.85
1542.535,-82.47
1542.54,-84.87
1542.545,-85.61
1542.55,-210.0
1542.555,-210.0
1542.56,-92.88
1542.565,-88.62
1542.57,-210.0
1542.575,-210.0
1542.58,-210.0
1542.585,-210.0
1542.59,-87.65
1542.595,-97.65
1542.6,-210.0
1542.605,-210.0
1542.61,-210.0
1542.615,-210.0
1542.62,-210.0
1542.625,-83.85
1542.63,-82.74
1542.635,-84.23
1542.64,-94.64
1542.645,-84.43
1542.65,-210.0
1542.655,-97.65
1542.66,-86.52
1542.665,-85.1
1542.67,-210.0
1542.675,-210.0
1542.68,-87.24
1542.685,-87.24
1542.69,-210.0
1542.695,-210.0
1542.7,-210.0
1542.705,-210.0
1542.71,-210.0
1542.715,-210.0
1542.72,-84.64
1542.725,-94.64
1542.73,-210.0
1542.735,-210.0
1542.74,-210.0
1542.745,-210.0
1542.75,-88.11
1542.755,-82.09
1542.76,-83.85
1542.765,-92.88
1542.77,-210.0
1542.775,-210.0
1542.78,-210.0
1542.785,-210.0
1542.79,-210.0
1542.795,-84.43
1542.8,-84.23
1542.805,-85.61
1542.81,-90.66
1542.815,-94.64
1542.82,-83.85
1542.825,-81.32
1542.83,-86.86
1542.835,-210.0
1542.84,-210.0
1542.845,-210.0
1542.85,-210.0
1542.855,-210.0
1542.86,-210.0
1542.865,-210.0
1542.87,-210.0
1542.875,-210.0
1542.88,-88.11
1542.885,-85.89
1542.89,-210.0
1542.895,-210.0
1542.9,-210.0
1542.905,-210.0
1542.91,-210.0
1542.915,-86.19
1542.92,-97.65
1542.925,-210.0
1542.93,-83.85
1542.935,-84.43
1542.94,-85.35
1542.945,-210.0
1542.95,-90.66
1542.955,-83.5
1542.96,-82.47
1542.965,-85.61
1542.97,-91.63
1542.975,-210.0
1542.98,-210.0
1542.985,-210.0
1542.99,-210.0
1542.995,-210.0
1543.0,-210.0
1543.005,-210.0
1543.01,-210.0
1543.015,-88.62
1543.02,-86.86
1543.025,-86.19
1543.03,-210.0
1543.035,-210.0
1543.04,-210.0
1543.045,-210.0
1543.05,-94.64
1543.055,-88.62
1543.06,-210.0
1543.065,-210.0
1543.07,-90.66
1543.075,-210.0
1543.08,-210.0
1543.085,-210.0
1543.09,-210.0
1543.095,-210.0
1543.1,-90.66
1543.105,-84.87
1543.11,-85.61
1543.115,-210.0
1543.12,-210.0
1543.125,-210.0
1543.13,-210.0
1543.135,-210.0
1543.14,-82.88
1543.145,-91.63
1543.15,-210.0
1543.155,-210.0
1543.16,-210.0
1543.165,-210.0
1543.17,-210.0
1543.175,-210.0
1543.18,-210.0
1543.185,-210.0
1543.19,-210.0
1543.195,-210.0
1543.2,-88.62
1543.205,-92.88
1543.21,-210.0
1543.215,-94.64
1543.22,-86.19
1543.225,-92.88
1543.23,-92.88
1543.235,-83.18
1543.24,-83.85
1543.245,-210.0
1543.25,-92.88
1543.255,-210.0
1543.26,-210.0
1543.265,-81.12
1543.27,-80.84
1543.275,-86.86
1543.28,-86.19
1543.285,-86.86
1543.29,-83.03
1543.295,-83.68
1543.3,-88.62
1543.305,-81.97
1543.31,-81.97
1543.315,-86.52
1543.32,-84.23
1543.325,-88.62
1543.33,-97.65
1543.335,-210.0
1543.34,-210.0
1543.345,-210.0
1543.35,-210.0
1543.355,-210.0
1543.36,-210.0
1543.365,-210.0
1543.37,-85.89
1543.375,-86.86
1543.38,-210.0
1543.385,-89.87
1543.39,-82.88
1543.395,-84.87
1543.4,-83.5
1543.405,-81.63
1543.41,-85.35
1543.415,-85.61
1543.42,-210.0
1543.425,-210.0
1543.43,-210.0
1543.435,-85.61
1543.44,-83.03
1543.445,-83.85
1543.45,-210.0
1543.455,-210.0
1543.46,-210.0
1543.465,-210.0
1543.47,-210.0
1543.475,-210.0
1543.48,-210.0
1543.485,-86.86
1543.49,-210.0
1543.495,-210.0
1543.5,-210.0
1543.505,-210.0
1543.51,-210.0
1543.515,-210.0
1543.52,-210.0
1543.525,-88.11
1543.53,-84.23
1543.535,-89.87
1543.54,-92.88
1543.545,-210.0
1543.55,-210.0
1543.555,-90.66
1543.56,-82.6
1543.565,-91.63
1543.57,-87.24
1543.575,-83.85
1543.58,-83.5
1543.585,-87.65
1543.59,-210.0
1543.595,-210.0
1543.6,-210.0
1543.605,-89.87
1543.61,-90.66
1543.615,-86.19
1543.62,-85.1
1543.625,-210.0
1543.63,-210.0
1543.635,-85.1
1543.64,-83.85
1543.645,-85.1
1543.65,-86.19
1543.655,-85.61
1543.66,-85.1
1543.665,-92.88
1543.67,-210.0
1543.675,-210.0
1543.68,-210.0
1543.685,-210.0
1543.69,-210.0
1543.695,-84.43
1543.7,-81.86
1543.705,-92.88
1543.71,-210.0
1543.715,-91.63
1543.72,-83.85
1543.725,-88.62
1543.73,-210.0
1543.735,-94.64
1543.74,-210.0
1543.745,-210.0
1543.75,-210.0
1543.755,-210.0
1543.76,-97.65
1543.765,-86.19
1543.77,-86.19
1543.775,-210.0
1543.78,-210.0
1543.785,-210.0
1543.79,-210.0
1543.795,-210.0
1543.8,-85.61
1543.805,-82.34
1543.81,-82.34
1543.815,-84.43
1543.82,-210.0
1543.825,-210.0
1543.83,-210.0
1543.835,-210.0
1543.84,-85.61
1543.845,-86.86
1543.85,-86.52
1543.855,-88.11
1543.86,-84.23
1543.865,-210.0
1543.87,-210.0
1543.875,-86.19
1543.88,-83.5
1543.885,-84.87
1543.89,-210.0
1543.895,-210.0
1543.9,-86.86
1543.905,-86.52
1543.91,-210.0
1543.915,-90.66
1543.92,-210.0
1543.925,-210.0
1543.93,-210.0
1543.935,-90.66
1543.94,-210.0
1543.945,-210.0
1543.95,-85.61
1543.955,-82.21
1543.96,-210.0
1543.965,-210.0
1543.97,-86.52
1543.975,-83.03
1543.98,-86.52
1543.985,-210.0
1543.99,-210.0
1543.995,-210.0
1544.0,-210.0
1544.005,-210.0
1544.01,-91.63
1544.015,-91.63
1544.02,-210.0
1544.025,-85.1
1544.03,-84.43
1544.035,-87.65
1544.04,-210.0
1544.045,-210.0
1544.05,-210.0
1544.055,-87.65
1544.06,-83.85
1544.065,-83.18
1544.07,-92.88
1544.075,-92.88
1544.08,-210.0
1544.085,-210.0
1544.09,-87.24
1544.095,-210.0
1544.1,-210.0
1544.105,-210.0
1544.11,-210.0
1544.115,-86.19
1544.12,-81.63
1544.125,-87.65
1544.13,-84.87
1544.135,-81.03
1544.14,-83.5
1544.145,-88.62
1544.15,-210.0
1544.155,-210.0
1544.16,-86.86
1544.165,-89.2
1544.17,-210.0
1544.175,-83.5
1544.18,-210.0
1544.185,-210.0
1544.19,-88.62
1544.195,-97.65
1544.2,-210.0
1544.205,-97.65
1544.21,-83.85
1544.215,-82.6
1544.22,-90.66
1544.225,-210.0
1544.23,-97.65
1544.235,-86.52
1544.24,-210.0
1544.245,-210.0
1544.25,-210.0
1544.255,-210.0
1544.26,-210.0
1544.265,-88.11
1544.27,-86.19
1544.275,-83.03
1544.28,-210.0
1544.285,-86.19
1544.29,-210.0
1544.295,-210.0
1544.3,-210.0
1544.305,-87.65
1544.31,-82.34
1544.315,-83.18
1544.32,-210.0
1544.325,-88.62
1544.33,-83.85
1544.335,-82.34
1544.34,-82.88
1544.345,-89.87
1544.35,-210.0
1544.355,-86.19
1544.36,-89.87
1544.365,-88.11
1544.37,-86.19
1544.375,-82.6
1544.38,-81.74
1544.385,-81.97
1544.39,-84.43
1544.395,-89.87
1544.4,-210.0
1544.405,-210.0
1544.41,-210.0
1544.415,-86.19
1544.42,-88.62
1544.425,-82.33
1544.43,-210.0
1544.435,-210.0
1544.44,-86.85
1544.445,-88.1
1544.45,-210.0
1544.455,-90.65
1544.46,-210.0
1544.465,-210.0
1544.47,-210.0
1544.475,-210.0
1544.48,-83.49
1544.485,-210.0
1544.49,-210.0
1544.495,-210.0
1544.5,-210.0
1544.505,-91.62
1544.51,-84.22
1544.515,-85.09
1544.52,-210.0
1544.525,-97.64
1544.53,-94.63
1544.535,-94.63
1544.54,-210.0
1544.545,-210.0
1544.55,-210.0
1544.555,-210.0
1544.56,-90.65
1544.565,-84.63
1544.57,-86.51
1544.575,-85.34
1544.58,-90.65
1544.585,-210.0
1544.59,-94.63
1544.595,-86.85
1544.6,-84.42
1544.605,-86.85
1544.61,-83.17
1544.615,-87.64
1544.62,-84.63
1544.625,-85.88
1544.63,-84.42
1544.635,-210.0
1544.64,-210.0
1544.645,-210.0
1544.65,-210.0
1544.655,-210.0
1544.66,-210.0
1544.665,-83.02
1544.67,-83.67
1544.675,-83.02
1544.68,-87.64
1544.685,-210.0
1544.69,-87.64
1544.695,-85.09
1544.7,-210.0
1544.705,-94.63
1544.71,-86.51
1544.715,-92.87
1544.72,-86.85
1544.725,-80.92
1544.73,-81.85
1544.735,-210.0
1544.74,-85.6
1544.745,-89.86
1544.75,-210.0
1544.755,-210.0
1544.76,-210.0
1544.765,-87.64
1544.77,-88.61
1544.775,-90.65
1544.78,-210.0
1544.785,-83.67
1544.79,-79.86
1544.795,-83.02
1544.8,-210.0
1544.805,-90.65
1544.81,-83.49
1544.815,-84.42
1544.82,-210.0
1544.825,-210.0
1544.83,-210.0
1544.835,-86.85
1544.84,-81.96
1544.845,-90.65
1544.85,-210.0
1544.855,-210.0
1544.86,-83.84
1544.865,-88.61
1544.87,-210.0
1544.875,-210.0
1544.88,-210.0
1544.885,-210.0
1544.89,-84.86
1544.895,-210.0
1544.9,-210.0
1544.905,-90.65
1544.91,-210.0
1544.915,-83.17
1544.92,-94.63
1544.925,-210.0
1544.93,-210.0
1544.935,-210.0
1544.94,-210.0
1544.945,-88.61
1544.95,-89.86
1544.955,-91.62
1544.96,-87.64
1544.965,-84.42
1544.97,-85.6
1544.975,-83.84
1544.98,-82.59
1544.985,-92.87
1544.99,-83.84
1544.995,-81.21
1545.0,-90.65
1545.005,-210.0
1545.01,-210.0
1545.015,-85.34
1545.02,-88.61
1545.025,-210.0
1545.03,-210.0
1545.035,-85.09
1545.04,-88.61
1545.045,-210.0
1545.05,-90.65
1545.055,-210.0
1545.06,-210.0
1545.065,-210.0
1545.07,-210.0
1545.075,-210.0
1545.08,-210.0
1545.085,-210.0
1545.09,-210.0
1545.095,-210.0
1545.1,-87.23
1545.105,-210.0
1545.11,-210.0
1545.115,-210.0
1545.12,-89.19
1545.125,-82.73
1545.13,-83.67
1545.135,-84.63
1545.14,-210.0
1545.145,-210.0
1545.15,-89.19
1545.155,-82.87
1545.16,-85.34
1545.165,-84.42
1545.17,-86.85
1545.175,-86.85
1545.18,-86.18
1545.185,-86.85
1545.19,-83.33
1545.195,-82.59
1545.2,-86.18
1545.205,-87.64
1545.21,-97.64
1545.215,-97.64
1545.22,-83.49
1545.225,-210.0
1545.23,-210.0
1545.235,-90.65
1545.24,-86.85
1545.245,-92.87
1545.25,-85.34
1545.255,-83.49
1545.26,-83.84
1545.265,-88.1
1545.27,-210.0
1545.275,-210.0
1545.28,-210.0
1545.285,-210.0
1545.29,-84.42
1545.295,-97.64
1545.3,-210.0
1545.305,-86.18
1545.31,-84.22
1545.315,-85.09
1545.32,-91.62
1545.325,-210.0
1545.33,-210.0
1545.335,-91.62
1545.34,-210.0
1545.345,-210.0
1545.35,-210.0
1545.355,-210.0
1545.36,-210.0
1545.365,-97.64
1545.37,-86.51
1545.375,-85.09
1545.38,-91.62
1545.385,-210.0
1545.39,-82.2
1545.395,-84.63
1545.4,-89.86
1545.405,-210.0
1545.41,-85.88
1545.415,-83.67
1545.42,-88.61
1545.425,-210.0
1545.43,-210.0
1545.435,-85.6
1545.44,-81.85
1545.445,-83.02
1545.45,-210.0
1545.455,-210.0
1545.46,-210.0
1545.465,-210.0
1545.47,-210.0
1545.475,-83.17
1545.48,-82.87
1545.485,-210.0
1545.49,-210.0
1545.495,-210.0
1545.5,-88.1
1545.505,-210.0
1545.51,-210.0
1545.515,-210.0
1545.52,-210.0
1545.525,-88.61
1545.53,-84.42
1545.535,-84.63
1545.54,-81.41
1545.545,-83.33
1545.55,-82.46
1545.555,-82.59
1545.56,-92.87
1545.565,-90.65
1545.57,-82.33
1545.575,-83.84
1545.58,-210.0
1545.585,-89.19
1545.59,-86.51
1545.595,-85.6
1545.6,-82.33
1545.605,-86.85
1545.61,-89.86
1545.615,-84.63
1545.62,-83.67
1545.625,-85.6
1545.63,-89.86
1545.635,-210.0
1545.64,-210.0
1545.645,-210.0
1545.65,-85.09
1545.655,-85.34
1545.66,-85.6
1545.665,-82.33
1545.67,-80.65
1545.675,-86.85
1545.68,-86.51
1545.685,-81.11
1545.69,-83.84
1545.695,-89.19
1545.7,-83.49
1545.705,-82.59
1545.71,-84.42
1545.715,-84.63
1545.72,-84.63
1545.725,-86.51
1545.73,-82.08
1545.735,-82.46
1545.74,-84.42
1545.745,-82.46
1545.75,-90.65
1545.755,-86.18
1545.76,-81.85
1545.765,-83.02
1545.77,-85.6
1545.775,-83.67
1545.78,-97.64
1545.785,-210.0
1545.79,-86.85
1545.795,-90.65
1545.8,-210.0
1545.805,-88.61
1545.81,-89.86
1545.815,-86.51
1545.82,-94.63
1545.825,-210.0
1545.83,-210.0
1545.835,-210.0
1545.84,-210.0
1545.845,-210.0
1545.85,-85.09
1545.855,-92.87
1545.86,-210.0
1545.865,-89.19
1545.87,-210.0
1545.875,-94.63
1545.88,-92.87
1545.885,-210.0
1545.89,-210.0
1545.895,-210.0
1545.9,-210.0
1545.905,-210.0
1545.91,-84.86
1545.915,-80.4
1545.92,-81.11
1545.925,-86.51
1545.93,-210.0
1545.935,-210.0
1545.94,-87.23
1545.945,-81.62
1545.95,-82.73
1545.955,-86.51
1545.96,-210.0
1545.965,-210.0
1545.97,-92.87
1545.975,-91.62
1545.98,-94.63
1545.985,-88.61
1545.99,-85.88
1545.995,-210.0
1546.0,-89.86
1546.005,-210.0
1546.01,-210.0
1546.015,-210.0
1546.02,-210.0
1546.025,-210.0
1546.03,-97.64
1546.035,-94.63
1546.04,-210.0
1546.045,-210.0
1546.05,-210.0
1546.055,-210.0
1546.06,-210.0
1546.065,-210.0
1546.07,-210.0
1546.075,-210.0
1546.08,-210.0
1546.085,-210.0
1546.09,-210.0
1546.095,-210.0
1546.1,-83.49
1546.105,-89.86
1546.11,-210.0
1546.115,-210.0
1546.12,-87.64
1546.125,-81.02
1546.13,-83.84
1546.135,-210.0
1546.14,-86.51
1546.145,-84.22
1546.15,-85.34
1546.155,-84.42
1546.16,-210.0
1546.165,-210.0
1546.17,-210.0
1546.175,-210.0
1546.18,-87.23
1546.185,-83.33
1546.19,-87.64
1546.195,-92.87
1546.2,-210.0
1546.205,-94.63
1546.21,-89.86
1546.215,-86.51
1546.22,-87.64
1546.225,-210.0
1546.23,-210.0
1546.235,-85.6
1546.24,-210.0
1546.245,-210.0
1546.25,-210.0
1546.255,-210.0
1546.26,-210.0
1546.265,-210.0
1546.27,-89.86
1546.275,-87.23
1546.28,-91.62
1546.285,-89.19
1546.29,-88.61
1546.295,-84.86
1546.3,-84.86
1546.305,-86.18
1546.31,-210.0
1546.315,-210.0
1546.32,-92.87
1546.325,-88.61
1546.33,-84.22
1546.335,-210.0
1546.34,-87.64
1546.345,-81.21
1546.35,-81.73
1546.355,-210.0
1546.36,-97.64
1546.365,-86.51
1546.37,-91.62
1546.375,-84.63
1546.38,-92.87
1546.385,-90.65
1546.39,-210.0
1546.395,-210.0
1546.4,-210.0
1546.405,-210.0
1546.41,-210.0
1546.415,-210.0
1546.42,-210.0
1546.425,-210.0
1546.43,-86.52
1546.435,-210.0
1546.44,-210.0
1546.445,-89.87
1546.45,-210.0
1546.455,-210.0
1546.46,-210.0
1546.465,-210.0
1546.47,-210.0
1546.475,-210.0
1546.48,-210.0
1546.485,-210.0
1546.49,-210.0
1546.495,-210.0
1546.5,-87.24
1546.505,-91.63
1546.51,-210.0
1546.515,-86.86
1546.52,-92.88
1546.525,-85.61
1546.53,-88.11
1546.535,-210.0
1546.54,-210.0
1546.545,-85.89
1546.55,-86.86
1546.555,-210.0
1546.56,-210.0
1546.565,-210.0
1546.57,-210.0
1546.575,-90.66
1546.58,-210.0
1546.585,-210.0
1546.59,-210.0
1546.595,-210.0
1546.6,-210.0
1546.605,-82.21
1546.61,-88.11
1546.615,-210.0
1546.62,-210.0
1546.625,-210.0
1546.63,-210.0
1546.635,-210.0
1546.64,-97.65
1546.645,-82.21
1546.65,-88.62
1546.655,-210.0
1546.66,-90.66
1546.665,-82.34
1546.67,-81.63
1546.675,-210.0
1546.68,-210.0
1546.685,-210.0
1546.69,-88.11
1546.695,-84.87
1546.7,-86.86
1546.705,-210.0
1546.71,-210.0
1546.715,-90.66
1546.72,-210.0
1546.725,-88.11
1546.73,-87.24
1546.735,-87.65
1546.74,-86.86
1546.745,-90.66
1546.75,-91.63
1546.755,-87.65
1546.76,-92.88
1546.765,-89.2
1546.77,-86.86
1546.775,-89.87
1546.78,-85.35
1546.785,-210.0
1546.79,-91.63
1546.795,-85.61
1546.8,-210.0
1546.805,-94.64
1546.81,-210.0
1546.815,-85.1
1546.82,-80.41
1546.825,-83.18
1546.83,-83.68
1546.835,-84.23
1546.84,-86.19
1546.845,-210.0
1546.85,-210.0
1546.855,-210.0
1546.86,-210.0
1546.865,-210.0
1546.87,-210.0
1546.875,-83.34
1546.88,-81.42
1546.885,-82.34
1546.89,-85.89
1546.895,-210.0
1546.9,-89.87
1546.905,-85.1
1546.91,-94.64
1546.915,-210.0
1546.92,-210.0
1546.925,-86.19
1546.93,-210.0
1546.935,-210.0
1546.94,-210.0
1546.945,-94.64
1546.95,-94.64
1546.955,-210.0
1546.96,-91.63
1546.965,-80.17
1546.97,-81.12
1546.975,-82.88
1546.98,-82.88
1546.985,-210.0
1546.99,-210.0
1546.995,-210.0
1547.0,-97.65
1547.005,-210.0
1547.01,-210.0
1547.015,-210.0
1547.02,-210.0
1547.025,-88.11
1547.03,-210.0
1547.035,-210.0
1547.04,-210.0
1547.045,-210.0
1547.05,-210.0
1547.055,-210.0
1547.06,-210.0
1547.065,-210.0
1547.07,-90.66
1547.075,-210.0
1547.08,-210.0
1547.085,-210.0
1547.09,-210.0
1547.095,-210.0
1547.1,-85.35
1547.105,-210.0
1547.11,-210.0
1547.115,-85.61
1547.12,-82.21
1547.125,-81.86
1547.13,-84.87
1547.135,-210.0
1547.14,-89.87
1547.145,-82.09
1547.15,-81.22
1547.155,-81.86
1547.16,-92.88
1547.165,-210.0
1547.17,-91.63
1547.175,-210.0
1547.18,-210.0
1547.185,-90.66
1547.19,-210.0
1547.195,-210.0
1547.2,-210.0
1547.205,-86.52
1547.21,-81.86
1547.215,-210.0
1547.22,-210.0
1547.225,-210.0
1547.23,-87.65
1547.235,-91.63
1547.24,-210.0
1547.245,-210.0
1547.25,-210.0
1547.255,-210.0
1547.26,-86.86
1547.265,-88.11
1547.27,-210.0
1547.275,-87.65
1547.28,-210.0
1547.285,-83.5
1547.29,-84.64
1547.295,-87.65
1547.3,-85.61
1547.305,-81.42
1547.31,-84.23
1547.315,-84.23
1547.32,-82.09
1547.325,-210.0
1547.33,-210.0
1547.335,-88.11
1547.34,-210.0
1547.345,-210.0
1547.35,-83.5
1547.355,-84.23
1547.36,-87.65
1547.365,-210.0
1547.37,-210.0
1547.375,-210.0
1547.38,-86.86
1547.385,-86.86
1547.39,-84.64
1547.395,-86.86
1547.4,-97.65
1547.405,-90.66
1547.41,-210.0
1547.415,-210.0
1547.42,-86.52
1547.425,-82.61
1547.43,-210.0
1547.435,-210.0
1547.44,-210.0
1547.445,-86.53
1547.45,-210.0
1547.455,-89.88
1547.46,-210.0
1547.465,-210.0
1547.47,-210.0
1547.475,-210.0
1547.48,-210.0
1547.485,-210.0
1547.49,-210.0
1547.495,-83.19
1547.5,-83.86
1547.505,-210.0
1547.51,-210.0
1547.515,-87.66
1547.52,-88.12
1547.525,-210.0
1547.53,-85.62
1547.535,-210.0
1547.54,-210.0
1547.545,-89.88
1547.55,-82.61
1547.555,-83.04
1547.56,-90.67
1547.565,-210.0
1547.57,-210.0
1547.575,-84.65
1547.58,-82.35
1547.585,-91.64
1547.59,-86.2
1547.595,-80.76
1547.6,-86.2
1547.605,-90.67
1547.61,-84.44
1547.615,-210.0
1547.62,-83.86
1547.625,-86.2
1547.63,-88.63
1547.635,-89.21
1547.64,-86.87
1547.645,-210.0
1547.65,-210.0
1547.655,-210.0
1547.66,-97.66
1547.665,-92.89
1547.67,-88.63
1547.675,-94.65
1547.68,-210.0
1547.685,-210.0
1547.69,-210.0
1547.695,-87.25
1547.7,-97.66
1547.705,-84.05
1547.71,-97.66
1547.715,-210.0
1547.72,-210.0
1547.725,-210.0
1547.73,-210.0
1547.735,-86.87
1547.74,-82.35
1547.745,-210.0
1547.75,-210.0
1547.755,-210.0
1547.76,-210.0
1547.765,-210.0
1547.77,-210.0
1547.775,-91.64
1547.78,-210.0
1547.785,-210.0
1547.79,-210.0
1547.795,-210.0
1547.8,-85.62
1547.805,-84.24
1547.81,-83.86
1547.815,-210.0
1547.82,-210.0
1547.825,-86.87
1547.83,-84.88
1547.835,-210.0
1547.84,-210.0
1547.845,-210.0
1547.85,-210.0
1547.855,-85.11
1547.86,-88.12
1547.865,-210.0
1547.87,-86.87
1547.875,-210.0
1547.88,-210.0
1547.885,-91.64
1547.89,-90.67
1547.895,-210.0
1547.9,-86.53
1547.905,-83.19
1547.91,-94.65
1547.915,-210.0
1547.92,-210.0
1547.925,-88.63
1547.93,-88.63
1547.935,-87.66
1547.94,-91.64
1547.945,-210.0
1547.95,-210.0
1547.955,-94.65
1547.96,-82.89
1547.965,-83.04
1547.97,-85.62
1547.975,-92.89
1547.98,-210.0
1547.985,-210.0
1547.99,-210.0
1547.995,-210.0
1548.0,-83.86
1548.005,-89.88
1548.01,-210.0
1548.015,-210.0
1548.02,-210.0
1548.025,-210.0
1548.03,-210.0
1548.035,-210.0
1548.04,-210.0
1548.045,-210.0
1548.05,-210.0
1548.055,-85.62
1548.06,-83.19
1548.065,-210.0
1548.07,-88.12
1548.075,-85.36
1548.08,-84.65
1548.085,-210.0
1548.09,-210.0
1548.095,-210.0
1548.1,-94.65
1548.105,-85.62
1548.11,-97.66
1548.115,-85.62
1548.12,-82.35
1548.125,-85.11
1548.13,-85.62
1548.135,-86.53
1548.14,-85.62
1548.145,-210.0
1548.15,-85.62
1548.155,-85.62
1548.16,-210.0
1548.165,-210.0
1548.17,-210.0
1548.175,-210.0
1548.18,-210.0
1548.185,-84.24
1548.19,-210.0
1548.195,-210.0
1548.2,-210.0
1548.205,-83.04
1548.21,-97.66
1548.215,-210.0
1548.22,-90.67
1548.225,-89.88
1548.23,-210.0
1548.235,-90.67
1548.24,-90.67
1548.245,-210.0
1548.25,-94.65
1548.255,-91.64
1548.26,-210.0
1548.265,-210.0
1548.27,-83.04
1548.275,-84.88
1548.28,-210.0
1548.285,-83.86
1548.29,-85.9
1548.295,-210.0
1548.3,-210.0
1548.305,-210.0
1548.31,-210.0
1548.315,-85.62
1548.32,-210.0
1548.325,-83.86
1548.33,-81.98
1548.335,-83.51
1548.34,-87.66
1548.345,-89.21
1548.35,-84.44
1548.355,-81.64
1548.36,-82.35
1548.365,-83.04
1548.37,-94.65
1548.375,-85.11
1548.38,-84.24
1548.385,-210.0
1548.39,-210.0
1548.395,-210.0
1548.4,-84.44
1548.405,-82.61
1548.41,-85.62
1548.415,-81.54
1548.42,-84.88
1548.425,-86.87
1548.43,-85.9
1548.435,-210.0
1548.44,-210.0
1548.445,-84.44
1548.45,-81.13
1548.455,-81.64
1548.46,-83.19
1548.465,-83.86
1548.47,-85.11
1548.475,-83.04
1548.48,-83.69
1548.485,-210.0
1548.49,-210.0
1548.495,-86.53
1548.5,-83.19
1548.505,-84.88
1548.51,-83.69
1548.515,-83.51
1548.52,-86.87
1548.525,-210.0
1548.53,-210.0
1548.535,-88.63
1548.54,-84.44
1548.545,-90.67
1548.55,-83.19
1548.555,-84.65
1548.56,-91.64
1548.565,-210.0
1548.57,-210.0
1548.575,-210.0
1548.58,-210.0
1548.585,-210.0
1548.59,-210.0
1548.595,-86.2
1548.6,-210.0
1548.605,-210.0
1548.61,-210.0
1548.615,-86.2
1548.62,-84.65
1548.625,-210.0
1548.63,-94.65
1548.635,-88.63
1548.64,-210.0
1548.645,-210.0
1548.65,-210.0
1548.655,-83.69
1548.66,-81.43
1548.665,-210.0
1548.67,-90.67
1548.675,-85.11
1548.68,-210.0
1548.685,-210.0
1548.69,-210.0
1548.695,-85.11
1548.7,-81.54
1548.705,-80.59
1548.71,-91.64
1548.715,-85.62
1548.72,-83.04
1548.725,-210.0
1548.73,-210.0
1548.735,-83.19
1548.74,-85.36
1548.745,-88.63
1548.75,-210.0
1548.755,-85.9
1548.76,-84.24
1548.765,-83.69
1548.77,-84.44
1548.775,-86.2
1548.78,-210.0
1548.785,-90.67
1548.79,-210.0
1548.795,-210.0
1548.8,-85.62
1548.805,-210.0
1548.81,-210.0
1548.815,-210.0
1548.82,-90.67
1548.825,-86.2
1548.83,-86.53
1548.835,-81.75
1548.84,-79.88
1548.845,-80.94
1548.85,-210.0
1548.855,-210.0
1548.86,-92.89
1548.865,-88.63
1548.87,-86.53
1548.875,-210.0
1548.88,-210.0
1548.885,-85.11
1548.89,-210.0
1548.895,-210.0
1548.9,-82.89
1548.905,-85.36
1548.91,-85.62
1548.915,-210.0
1548.92,-84.24
1548.925,-91.64
1548.93,-86.87
1548.935,-87.66
1548.94,-210.0
1548.945,-210.0
1548.95,-210.0
1548.955,-210.0
1548.96,-86.53
1548.965,-83.86
1548.97,-97.66
1548.975,-210.0
1548.98,-210.0
1548.985,-210.0
1548.99,-210.0
1548.995,-88.63
1549.0,-84.65
1549.005,-89.21
1549.01,-91.64
1549.015,-210.0
1549.02,-210.0
1549.025,-210.0
1549.03,-210.0
1549.035,-210.0
1549.04,-210.0
1549.045,-88.12
1549.05,-86.2
1549.055,-210.0
1549.06,-210.0
1549.065,-210.0
1549.07,-210.0
1549.075,-210.0
1549.08,-210.0
1549.085,-210.0
1549.09,-210.0
1549.095,-210.0
1549.1,-85.62
1549.105,-85.11
1549.11,-210.0
1549.115,-90.67
1549.12,-81.87
1549.125,-88.12
1549.13,-83.51
1549.135,-82.1
1549.14,-89.88
1549.145,-210.0
1549.15,-210.0
1549.155,-85.11
1549.16,-86.87
1549.165,-85.11
1549.17,-94.65
1549.175,-210.0
1549.18,-210.0
1549.185,-83.86
1549.19,-210.0
1549.195,-210.0
1549.2,-83.04
1549.205,-210.0
1549.21,-91.64
1549.215,-85.62
1549.22,-86.53
1549.225,-210.0
1549.23,-210.0
1549.235,-85.11
1549.24,-84.05
1549.245,-81.87
1549.25,-85.62
1549.255,-92.89
1549.26,-210.0
1549.265,-210.0
1549.27,-92.89
1549.275,-88.63
1549.28,-84.24
1549.285,-86.53
1549.29,-87.25
1549.295,-81.98
1549.3,-84.88
1549.305,-210.0
1549.31,-210.0
1549.315,-210.0
1549.32,-210.0
1549.325,-210.0
1549.33,-94.65
1549.335,-88.12
1549.34,-84.88
1549.345,-86.2
1549.35,-88.12
1549.355,-210.0
1549.36,-210.0
1549.365,-210.0
1549.37,-210.0
1549.375,-210.0
1549.38,-210.0
1549.385,-210.0
1549.39,-210.0
1549.395,-88.63
1549.4,-210.0
1549.405,-210.0
1549.41,-210.0
1549.415,-90.67
1549.42,-210.0
1549.425,-210.0
1549.43,-210.0
1549.435,-210.0
1549.44,-85.9
1549.445,-210.0
1549.45,-210.0
1549.455,-84.65
1549.46,-87.66
1549.465,-86.2
1549.47,-86.2
1549.475,-91.64
1549.48,-210.0
1549.485,-210.0
1549.49,-210.0
1549.495,-210.0
1549.5,-83.04
1549.505,-87.66
1549.51,-210.0
1549.515,-210.0
1549.52,-210.0
1549.525,-210.0
1549.53,-210.0
1549.535,-210.0
1549.54,-210.0
1549.545,-210.0
1549.55,-91.64
1549.555,-87.66
1549.56,-85.11
1549.565,-83.04
1549.57,-210.0
1549.575,-210.0
1549.58,-84.44
1549.585,-83.19
1549.59,-84.88
1549.595,-210.0
1549.6,-86.87
1549.605,-86.87
1549.61,-85.11
1549.615,-83.86
1549.62,-92.89
1549.625,-94.65
1549.63,-82.22
1549.635,-83.19
1549.64,-84.88
1549.645,-210.0
1549.65,-210.0
1549.655,-86.53
1549.66,-210.0
1549.665,-210.0
1549.67,-88.12
1549.675,-88.63
1549.68,-88.63
1549.685,-87.66
1549.69,-89.88
1549.695,-94.65
1549.7,-88.12
1549.705,-210.0
1549.71,-89.21
1549.715,-83.51
1549.72,-86.2
1549.725,-82.35
1549.73,-84.24
1549.735,-90.67
1549.74,-89.88
1549.745,-210.0
1549.75,-210.0
1549.755,-210.0
1549.76,-210.0
1549.765,-210.0
1549.77,-210.0
1549.775,-210.0
1549.78,-210.0
1549.785,-210.0
1549.79,-210.0
1549.795,-94.65
1549.8,-89.88
1549.805,-210.0
1549.81,-210.0
1549.815,-210.0
1549.82,-210.0
1549.825,-86.2
1549.83,-210.0
1549.835,-90.67
1549.84,-90.67
1549.845,-86.87
1549.85,-81.98
1549.855,-85.62
1549.86,-210.0
1549.865,-210.0
1549.87,-210.0
1549.875,-82.48
1549.88,-84.44
1549.885,-210.0
1549.89,-210.0
1549.895,-83.51
1549.9,-82.61
1549.905,-83.04
1549.91,-210.0
1549.915,-210.0
1549.92,-89.88
1549.925,-97.66
1549.93,-90.67
1549.935,-210.0
1549.94,-210.0
1549.945,-210.0
1549.95,-210.0
1549.955,-210.0
1549.96,-86.87
1549.965,-86.2
1549.97,-210.0
1549.975,-210.0
1549.98,-210.0
1549.985,-210.0
1549.99,-86.53
1549.995,-86.87
1550.0,-85.62
1550.005,-87.66
1550.01,-94.65
1550.015,-210.0
1550.02,-210.0
1550.025,-81.23
1550.03,-87.25
1550.035,-210.0
1550.04,-86.53
1550.045,-210.0
1550.05,-85.62
1550.055,-84.65
1550.06,-83.69
1550.065,-89.88
1550.07,-210.0
1550.075,-210.0
1550.08,-210.0
1550.085,-210.0
1550.09,-89.21
1550.095,-85.62
1550.1,-210.0
1550.105,-210.0
1550.11,-210.0
1550.115,-210.0
1550.12,-210.0
1550.125,-210.0
1550.13,-210.0
1550.135,-86.53
1550.14,-83.51
1550.145,-85.62
1550.15,-87.66
1550.155,-81.43
1550.16,-82.48
1550.165,-210.0
1550.17,-210.0
1550.175,-81.98
1550.18,-82.48
1550.185,-82.61
1550.19,-83.19
1550.195,-210.0
1550.2,-210.0
1550.205,-86.53
1550.21,-88.12
1550.215,-92.89
1550.22,-85.11
1550.225,-88.12
1550.23,-94.65
1550.235,-91.64
1550.24,-210.0
1550.245,-210.0
1550.25,-210.0
1550.255,-210.0
1550.26,-210.0
1550.265,-210.0
1550.27,-210.0
1550.275,-210.0
1550.28,-90.67
1550.285,-85.36
1550.29,-92.89
1550.295,-87.66
1550.3,-210.0
1550.305,-210.0
1550.31,-85.62
1550.315,-94.65
1550.32,-86.87
1550.325,-210.0
1550.33,-210.0
1550.335,-210.0
1550.34,-210.0
1550.345,-210.0
1550.35,-210.0
1550.355,-83.51
1550.36,-90.67
1550.365,-210.0
1550.37,-90.67
1550.375,-83.86
1550.38,-210.0
1550.385,-210.0
1550.39,-92.89
1550.395,-210.0
1550.4,-86.53
1550.405,-81.75
1550.41,-84.44
1550.415,-210.0
1550.42,-210.0
1550.425,-210.0
1550.43,-210.0
1550.435,-210.0
1550.44,-88.11
1550.445,-90.66
1550.45,-210.0
1550.455,-210.0
1550.46,-90.66
1550.465,-83.68
1550.47,-84.04
1550.475,-81.03
1550.48,-82.47
1550.485,-87.65
1550.49,-210.0
1550.495,-210.0
1550.5,-87.65
1550.505,-83.68
1550.51,-85.35
1550.515,-84.87
1550.52,-85.1
1550.525,-97.65
1550.53,-86.19
1550.535,-210.0
1550.54,-210.0
1550.545,-210.0
1550.55,-86.86
1550.555,-86.86
1550.56,-92.88
1550.565,-210.0
1550.57,-210.0
1550.575,-210.0
1550.58,-89.87
1550.585,-210.0
1550.59,-210.0
1550.595,-210.0
1550.6,-210.0
1550.605,-210.0
1550.61,-210.0
1550.615,-87.24
1550.62,-210.0
1550.625,-210.0
1550.63,-94.64
1550.635,-94.64
1550.64,-210.0
1550.645,-210.0
1550.65,-90.66
1550.655,-97.65
1550.66,-210.0
1550.665,-85.35
1550.67,-87.65
1550.675,-210.0
1550.68,-210.0
1550.685,-210.0
1550.69,-88.11
1550.695,-210.0
1550.7,-210.0
1550.705,-210.0
1550.71,-210.0
1550.715,-210.0
1550.72,-86.19
1550.725,-87.65
1550.73,-91.63
1550.735,-86.86
1550.74,-90.66
1550.745,-85.61
1550.75,-84.43
1550.755,-82.6
1550.76,-81.12
1550.765,-81.97
1550.77,-89.2
1550.775,-210.0
1550.78,-210.0
1550.785,-88.11
1550.79,-210.0
1550.795,-210.0
1550.8,-210.0
1550.805,-210.0
1550.81,-210.0
1550.815,-84.43
1550.82,-81.97
1550.825,-86.52
1550.83,-210.0
1550.835,-88.11
1550.84,-85.61
1550.845,-210.0
1550.85,-210.0
1550.855,-210.0
1550.86,-210.0
1550.865,-210.0
1550.87,-210.0
1550.875,-81.97
1550.88,-84.43
1550.885,-83.03
1550.89,-83.18
1550.895,-82.09
1550.9,-84.43
1550.905,-210.0
1550.91,-210.0
1550.915,-87.65
1550.92,-210.0
1550.925,-210.0
1550.93,-210.0
1550.935,-87.65
1550.94,-87.65
1550.945,-210.0
1550.95,-210.0
1550.955,-210.0
1550.96,-210.0
1550.965,-210.0
1550.97,-210.0
1550.975,-210.0
1550.98,-89.87
1550.985,-210.0
1550.99,-210.0
1550.995,-210.0
1551.0,-210.0
1551.005,-210.0
1551.01,-84.43
1551.015,-83.5
1551.02,-210.0
1551.025,-210.0
1551.03,-210.0
1551.035,-210.0
1551.04,-210.0
1551.045,-210.0
1551.05,-85.35
1551.055,-86.86
1551.06,-88.62
1551.065,-86.19
1551.07,-210.0
1551.075,-210.0
1551.08,-210.0
1551.085,-90.66
1551.09,-210.0
1551.095,-94.64
1551.1,-86.19
1551.105,-210.0
1551.11,-86.52
1551.115,-82.88
1551.12,-210.0
1551.125,-210.0
1551.13,-90.66
1551.135,-210.0
1551.14,-91.63
1551.145,-210.0
1551.15,-91.63
1551.155,-88.62
1551.16,-84.43
1551.165,-210.0
1551.17,-210.0
1551.175,-210.0
1551.18,-90.66
1551.185,-210.0
1551.19,-210.0
1551.195,-210.0
1551.2,-91.63
1551.205,-210.0
1551.21,-210.0
1551.215,-210.0
1551.22,-210.0
1551.225,-210.0
1551.23,-210.0
1551.235,-94.64
1551.24,-210.0
1551.245,-88.62
1551.25,-210.0
1551.255,-210.0
1551.26,-210.0
1551.265,-85.89
1551.27,-85.89
1551.275,-87.65
1551.28,-85.35
1551.285,-86.52
1551.29,-210.0
1551.295,-210.0
1551.3,-210.0
1551.305,-210.0
1551.31,-210.0
1551.315,-89.87
1551.32,-210.0
1551.325,-210.0
1551.33,-210.0
1551.335,-84.43
1551.34,-210.0
1551.345,-97.65
1551.35,-210.0
1551.355,-210.0
1551.36,-210.0
1551.365,-89.87
1551.37,-94.64
1551.375,-210.0
1551.38,-210.0
1551.385,-88.11
1551.39,-84.64
1551.395,-86.19
1551.4,-94.64
1551.405,-210.0
1551.41,-210.0
1551.415,-90.66
1551.42,-210.0
1551.425,-97.66
1551.43,-210.0
1551.435,-210.0
1551.44,-210.0
1551.445,-210.0
1551.45,-88.63
1551.455,-81.75
1551.46,-84.44
1551.465,-210.0
1551.47,-210.0
1551.475,-94.65
1551.48,-86.53
1551.485,-83.51
1551.49,-90.67
1551.495,-85.11
1551.5,-90.67
1551.505,-84.44
1551.51,-210.0
1551.515,-83.35
1551.52,-210.0
1551.525,-210.0
1551.53,-210.0
1551.535,-87.66
1551.54,-97.66
1551.545,-210.0
1551.55,-210.0
1551.555,-210.0
1551.56,-83.51
1551.565,-83.86
1551.57,-210.0
1551.575,-84.05
1551.58,-94.65
1551.585,-87.25
1551.59,-83.86
1551.595,-88.12
1551.6,-210.0
1551.605,-92.89
1551.61,-84.88
1551.615,-81.54
1551.62,-87.66
1551.625,-210.0
1551.63,-210.0
1551.635,-84.88
1551.64,-81.87
1551.645,-85.36
1551.65,-210.0
1551.655,-87.66
1551.66,-85.11
1551.665,-86.87
1551.67,-210.0
1551.675,-210.0
1551.68,-210.0
1551.685,-85.11
1551.69,-210.0
1551.695,-210.0
1551.7,-210.0
1551.705,-91.64
1551.71,-88.63
1551.715,-84.88
1551.72,-85.36
1551.725,-97.66
1551.73,-210.0
1551.735,-210.0
1551.74,-210.0
1551.745,-210.0
1551.75,-210.0
1551.755,-83.04
1551.76,-90.67
1551.765,-210.0
1551.77,-87.66
1551.775,-85.62
1551.78,-84.24
1551.785,-87.66
1551.79,-94.65
1551.795,-210.0
1551.8,-210.0
1551.805,-210.0
1551.81,-83.51
1551.815,-83.69
1551.82,-210.0
1551.825,-90.67
1551.83,-82.35
1551.835,-80.03
1551.84,-84.24
1551.845,-210.0
1551.85,-210.0
1551.855,-210.0
1551.86,-210.0
1551.865,-210.0
1551.87,-91.64
1551.875,-84.05
1551.88,-85.62
1551.885,-81.64
1551.89,-83.19
1551.895,-89.21
1551.9,-210.0
1551.905,-210.0
1551.91,-86.87
1551.915,-83.86
1551.92,-210.0
1551.925,-210.0
1551.93,-83.51
1551.935,-85.11
1551.94,-84.88
1551.945,-85.62
1551.95,-88.63
1551.955,-83.86
1551.96,-84.24
1551.965,-84.44
1551.97,-81.23
1551.975,-82.89
1551.98,-210.0
1551.985,-210.0
1551.99,-210.0
1551.995,-210.0
1552.0,-210.0
1552.005,-210.0
1552.01,-210.0
1552.015,-94.65
1552.02,-210.0
1552.025,-210.0
1552.03,-210.0
1552.035,-83.04
1552.04,-83.04
1552.045,-210.0
1552.05,-82.35
1552.055,-84.65
1552.06,-91.64
1552.065,-82.61
1552.07,-83.19
1552.075,-90.67
1552.08,-210.0
1552.085,-210.0
1552.09,-210.0
1552.095,-210.0
1552.1,-86.2
1552.105,-85.36
1552.11,-88.12
1552.115,-97.66
1552.12,-210.0
1552.125,-83.19
1552.13,-83.86
1552.135,-82.35
1552.14,-81.23
1552.145,-80.67
1552.15,-80.18
1552.155,-85.36
1552.16,-210.0
1552.165,-210.0
1552.17,-210.0
1552.175,-210.0
1552.18,-210.0
1552.185,-210.0
1552.19,-210.0
1552.195,-210.0
1552.2,-210.0
1552.205,-210.0
1552.21,-210.0
1552.215,-210.0
1552.22,-210.0
1552.225,-210.0
1552.23,-210.0
1552.235,-97.66
1552.24,-83.69
1552.245,-83.86
1552.25,-87.66
1552.255,-86.2
1552.26,-82.35
1552.265,-83.19
1552.27,-84.24
1552.275,-92.89
1552.28,-86.2
1552.285,-210.0
1552.29,-210.0
1552.295,-210.0
1552.3,-210.0
1552.305,-210.0
1552.31,-87.66
1552.315,-210.0
1552.32,-86.53
1552.325,-83.51
1552.33,-85.11
1552.335,-84.05
1552.34,-97.66
1552.345,-210.0
1552.35,-82.35
1552.355,-83.51
1552.36,-210.0
1552.365,-210.0
1552.37,-210.0
1552.375,-97.66
1552.38,-210.0
1552.385,-210.0
1552.39,-210.0
1552.395,-210.0
1552.4,-94.65
1552.405,-210.0
1552.41,-210.0
1552.415,-210.0
1552.42,-94.65
1552.425,-210.0
1552.43,-210.0
1552.435,-210.0
1552.44,-210.0
1552.445,-86.88
1552.45,-210.0
1552.455,-210.0
1552.46,-210.0
1552.465,-210.0
1552.47,-210.0
1552.475,-91.65
1552.48,-87.67
1552.485,-210.0
1552.49,-210.0
1552.495,-210.0
1552.5,-210.0
1552.505,-84.89
1552.51,-88.64
1552.515,-210.0
1552.52,-210.0
1552.525,-82.11
1552.53,-83.7
1552.535,-85.12
1552.54,-210.0
1552.545,-210.0
1552.55,-210.0
1552.555,-210.0
1552.56,-210.0
1552.565,-94.66
1552.57,-210.0
1552.575,-210.0
1552.58,-210.0
1552.585,-90.68
1552.59,-89.89
1552.595,-92.9
1552.6,-210.0
1552.605,-210.0
1552.61,-210.0
1552.615,-85.63
1552.62,-82.62
1552.625,-81.88
1552.63,-82.9
1552.635,-83.2
1552.64,-88.13
1552.645,-87.67
1552.65,-83.7
1552.655,-210.0
1552.66,-210.0
1552.665,-87.67
1552.67,-83.87
1552.675,-84.06
1552.68,-210.0
1552.685,-210.0
1552.69,-89.89
1552.695,-80.6
1552.7,-83.05
1552.705,-85.91
1552.71,-85.63
1552.715,-89.89
1552.72,-210.0
1552.725,-210.0
1552.73,-82.62
1552.735,-84.25
1552.74,-210.0
1552.745,-86.54
1552.75,-210.0
1552.755,-210.0
1552.76,-210.0
1552.765,-210.0
1552.77,-210.0
1552.775,-210.0
1552.78,-210.0
1552.785,-210.0
1552.79,-210.0
1552.795,-210.0
1552.8,-87.67
1552.805,-87.67
1552.81,-210.0
1552.815,-210.0
1552.82,-210.0
1552.825,-91.65
1552.83,-86.54
1552.835,-210.0
1552.84,-85.12
1552.845,-85.12
1552.85,-84.66
1552.855,-82.36
1552.86,-81.44
1552.865,-85.12
1552.87,-210.0
1552.875,-210.0
1552.88,-86.54
1552.885,-86.54
1552.89,-84.25
1552.895,-82.11
1552.9,-86.54
1552.905,-97.67
1552.91,-86.21
1552.915,-87.67
1552.92,-90.68
1552.925,-85.12
1552.93,-84.45
1552.935,-89.89
1552.94,-90.68
1552.945,-83.52
1552.95,-210.0
1552.955,-210.0
1552.96,-210.0
1552.965,-210.0
1552.97,-84.45
1552.975,-88.64
1552.98,-86.54
1552.985,-87.67
1552.99,-83.2
1552.995,-80.19
1553.0,-83.87
1553.005,-94.66
1553.01,-86.21
1553.015,-84.89
1553.02,-84.89
1553.025,-84.89
1553.03,-90.68
1553.035,-210.0
1553.04,-210.0
1553.045,-210.0
1553.05,-88.64
1553.055,-83.7
1553.06,-85.63
1553.065,-210.0
1553.07,-210.0
1553.075,-210.0
1553.08,-210.0
1553.085,-210.0
1553.09,-210.0
1553.095,-210.0
1553.1,-210.0
1553.105,-89.89
1553.11,-87.67
1553.115,-210.0
1553.12,-210.0
1553.125,-210.0
1553.13,-210.0
1553.135,-210.0
1553.14,-88.13
1553.145,-210.0
1553.15,-83.7
1553.155,-81.65
1553.16,-86.54
1553.165,-88.13
1553.17,-86.88
1553.175,-210.0
1553.18,-210.0
1553.185,-210.0
1553.19,-210.0
1553.195,-210.0
1553.2,-82.36
1553.205,-80.77
1553.21,-84.25
1553.215,-210.0
1553.22,-89.89
1553.225,-91.65
1553.23,-94.66
1553.235,-84.89
1553.24,-86.21
1553.245,-210.0
1553.25,-83.7
1553.255,-87.67
1553.26,-88.13
1553.265,-83.87
1553.27,-89.22
1553.275,-83.36
1553.28,-80.95
1553.285,-83.52
1553.29,-86.21
1553.295,-210.0
1553.3,-210.0
1553.305,-210.0
1553.31,-210.0
1553.315,-210.0
1553.32,-89.22
1553.325,-210.0
1553.33,-97.67
1553.335,-84.66
1553.34,-82.9
1553.345,-94.66
1553.35,-210.0
1553.355,-210.0
1553.36,-210.0
1553.365,-210.0
1553.37,-81.99
1553.375,-86.88
1553.38,-92.9
1553.385,-210.0
1553.39,-89.89
1553.395,-210.0
1553.4,-210.0
1553.405,-210.0
1553.41,-210.0
1553.415,-210.0
1553.42,-86.21
1553.425,-87.66
1553.43,-210.0
1553.435,-210.0
1553.44,-87.25
1553.445,-210.0
1553.45,-210.0
1553.455,-97.66
1553.46,-210.0
1553.465,-210.0
1553.47,-87.25
1553.475,-91.64
1553.48,-83.86
1553.485,-84.24
1553.49,-85.36
1553.495,-83.51
1553.5,-88.63
1553.505,-85.11
1553.51,-210.0
1553.515,-210.0
1553.52,-210.0
1553.525,-210.0
1553.53,-210.0
1553.535,-89.88
1553.54,-91.64
1553.545,-84.88
1553.55,-210.0
1553.555,-92.89
1553.56,-210.0
1553.565,-210.0
1553.57,-210.0
1553.575,-84.65
1553.58,-210.0
1553.585,-210.0
1553.59,-87.66
1553.595,-85.11
1553.6,-85.62
1553.605,-210.0
1553.61,-210.0
1553.615,-92.89
1553.62,-91.64
1553.625,-210.0
1553.63,-210.0
1553.635,-210.0
1553.64,-210.0
1553.645,-90.67
1553.65,-210.0
1553.655,-210.0
1553.66,-86.53
1553.665,-86.53
1553.67,-87.66
1553.675,-94.65
1553.68,-87.66
1553.685,-82.35
1553.69,-210.0
1553.695,-210.0
1553.7,-94.65
1553.705,-210.0
1553.71,-210.0
1553.715,-210.0
1553.72,-210.0
1553.725,-210.0
1553.73,-210.0
1553.735,-210.0
1553.74,-97.66
1553.745,-210.0
1553.75,-210.0
1553.755,-210.0
1553.76,-86.2
1553.765,-210.0
1553.77,-89.21
1553.775,-210.0
1553.78,-210.0
1553.785,-210.0
1553.79,-210.0
1553.795,-85.11
1553.8,-86.87
1553.805,-89.21
1553.81,-84.24
1553.815,-82.75
1553.82,-87.66
1553.825,-83.86
1553.83,-83.35
1553.835,-97.66
1553.84,-91.64
1553.845,-88.12
1553.85,-85.11
1553.855,-84.88
1553.86,-86.87
1553.865,-210.0
1553.87,-210.0
1553.875,-85.11
1553.88,-84.44
1553.885,-88.12
1553.89,-210.0
1553.895,-89.88
1553.9,-210.0
1553.905,-210.0
1553.91,-86.2
1553.915,-81.98
1553.92,-83.86
1553.925,-89.21
1553.93,-210.0
1553.935,-210.0
1553.94,-210.0
1553.945,-88.63
1553.95,-85.62
1553.955,-90.67
1553.96,-92.89
1553.965,-92.89
1553.97,-210.0
1553.975,-210.0
1553.98,-90.67
1553.985,-210.0
1553.99,-210.0
1553.995,-210.0
1554.0,-210.0
1554.005,-210.0
1554.01,-210.0
1554.015,-90.67
1554.02,-87.66
1554.025,-87.25
1554.03,-86.87
1554.035,-89.88
1554.04,-210.0
1554.045,-81.64
1554.05,-87.66
1554.055,-210.0
1554.06,-94.65
1554.065,-89.21
1554.07,-210.0
1554.075,-210.0
1554.08,-85.11
1554.085,-210.0
1554.09,-210.0
1554.095,-85.11
1554.1,-83.86
1554.105,-87.66
1554.11,-210.0
1554.115,-210.0
1554.12,-85.11
1554.125,-91.64
1554.13,-210.0
1554.135,-92.89
1554.14,-83.51
1554.145,-86.87
1554.15,-210.0
1554.155,-210.0
1554.16,-210.0
1554.165,-210.0
1554.17,-210.0
1554.175,-92.89
1554.18,-82.35
1554.185,-88.12
1554.19,-210.0
1554.195,-210.0
1554.2,-210.0
1554.205,-94.65
1554.21,-210.0
1554.215,-94.65
1554.22,-81.75
1554.225,-82.61
1554.23,-210.0
1554.235,-85.11
1554.24,-83.35
1554.245,-85.11
1554.25,-210.0
1554.255,-210.0
1554.26,-210.0
1554.265,-210.0
1554.27,-210.0
1554.275,-87.25
1554.28,-210.0
1554.285,-210.0
1554.29,-85.36
1554.295,-83.86
1554.3,-90.67
1554.305,-210.0
1554.31,-210.0
1554.315,-210.0
1554.32,-210.0
1554.325,-210.0
1554.33,-210.0
1554.335,-210.0
1554.34,-210.0
1554.345,-210.0
1554.35,-210.0
1554.355,-210.0
1554.36,-210.0
1554.365,-83.51
1554.37,-89.88
1554.375,-210.0
1554.38,-210.0
1554.385,-83.86
1554.39,-82.89
1554.395,-86.53
1554.4,-210.0
1554.405,-210.0
1554.41,-97.66
1554.415,-210.0
1554.42,-97.66
1554.425,-94.64
1554.43,-210.0
1554.435,-210.0
1554.44,-210.0
1554.445,-210.0
1554.45,-210.0
1554.455,-88.62
1554.46,-210.0
1554.465,-97.65
1554.47,-87.24
1554.475,-84.87
1554.48,-87.65
1554.485,-210.0
1554.49,-210.0
1554.495,-210.0
1554.5,-86.19
1554.505,-94.64
1554.51,-210.0
1554.515,-210.0
1554.52,-86.52
1554.525,-83.18
1554.53,-89.87
1554.535,-82.21
1554.54,-210.0
1554.545,-210.0
1554.55,-210.0
1554.555,-92.88
1554.56,-83.68
1554.565,-82.6
1554.57,-94.64
1554.575,-210.0
1554.58,-210.0
1554.585,-91.63
1554.59,-82.88
1554.595,-94.64
1554.6,-210.0
1554.605,-210.0
1554.61,-210.0
1554.615,-210.0
1554.62,-89.87
1554.625,-210.0
1554.63,-210.0
1554.635,-85.61
1554.64,-210.0
1554.645,-210.0
1554.65,-210.0
1554.655,-210.0
1554.66,-210.0
1554.665,-210.0
1554.67,-88.11
1554.675,-210.0
1554.68,-210.0
1554.685,-84.23
1554.69,-210.0
1554.695,-210.0
1554.7,-210.0
1554.705,-210.0
1554.71,-210.0
1554.715,-92.88
1554.72,-85.1
1554.725,-91.63
1554.73,-210.0
1554.735,-210.0
1554.74,-210.0
1554.745,-85.61
1554.75,-83.68
1554.755,-84.64
1554.76,-94.65
1554.765,-210.0
1554.77,-97.66
1554.775,-91.64
1554.78,-87.66
1554.785,-85.11
1554.79,-84.44
1554.795,-82.61
1554.8,-82.61
1554.805,-82.22
1554.81,-210.0
1554.815,-210.0
1554.82,-210.0
1554.825,-210.0
1554.83,-210.0
1554.835,-210.0
1554.84,-210.0
1554.845,-97.66
1554.85,-94.65
1554.855,-210.0
1554.86,-210.0
1554.865,-210.0
1554.87,-89.88
1554.875,-87.66
1554.88,-84.24
1554.885,-85.62
1554.89,-88.63
1554.895,-210.0
1554.9,-210.0
1554.905,-210.0
1554.91,-210.0
1554.915,-88.63
1554.92,-87.66
1554.925,-85.62
1554.93,-85.9
1554.935,-210.0
1554.94,-210.0
1554.945,-210.0
1554.95,-84.24
1554.955,-83.04
1554.96,-82.48
1554.965,-83.69
1554.97,-83.69
1554.975,-83.51
1554.98,-83.51
1554.985,-86.2
1554.99,-210.0
1554.995,-210.0
1555.0,-210.0
1555.005,-90.67
1555.01,-81.98
1555.015,-83.51
1555.02,-86.2
1555.025,-89.88
1555.03,-210.0
1555.035,-210.0
1555.04,-90.67
1555.045,-83.51
1555.05,-81.98
1555.055,-83.86
1555.06,-82.35
1555.065,-82.22
1555.07,-85.36
1555.075,-92.89
1555.08,-86.2
1555.085,-92.89
1555.09,-210.0
1555.095,-86.54
1555.1,-82.11
1555.105,-210.0
1555.11,-210.0
1555.115,-210.0
1555.12,-89.89
1555.125,-88.13
1555.13,-81.65
1555.135,-83.52
1555.14,-210.0
1555.145,-210.0
1555.15,-85.63
1555.155,-81.14
1555.16,-82.9
1555.165,-210.0
1555.17,-86.54
1555.175,-210.0
1555.18,-210.0
1555.185,-210.0
1555.19,-210.0
1555.195,-210.0
1555.2,-97.67
1555.205,-210.0
1555.21,-94.66
1555.215,-210.0
1555.22,-210.0
1555.225,-210.0
1555.23,-210.0
1555.235,-210.0
1555.24,-210.0
1555.245,-210.0
1555.25,-210.0
1555.255,-210.0
1555.26,-210.0
1555.265,-84.25
1555.27,-80.77
1555.275,-82.76
1555.28,-210.0
1555.285,-87.67
1555.29,-84.45
1555.295,-88.64
1555.3,-87.67
1555.305,-84.25
1555.31,-83.52
1555.315,-82.49
1555.32,-82.62
1555.325,-83.87
1555.33,-87.26
1555.335,-210.0
1555.34,-89.22
1555.345,-83.87
1555.35,-83.05
1555.355,-87.67
1555.36,-87.67
1555.365,-210.0
1555.37,-210.0
1555.375,-210.0
1555.38,-210.0
1555.385,-88.64
1555.39,-210.0
1555.395,-210.0
1555.4,-210.0
1555.405,-84.66
1555.41,-87.67
1555.415,-210.0
1555.42,-81.88
1555.425,-79.9
1555.43,-86.22
1555.435,-210.0
1555.44,-210.0
1555.445,-85.13
1555.45,-97.68
1555.455,-83.06
1555.46,-87.68
1555.465,-210.0
1555.47,-210.0
1555.475,-210.0
1555.48,-90.69
1555.485,-82.37
1555.49,-210.0
1555.495,-210.0
1555.5,-210.0
1555.505,-86.89
1555.51,-82.91
1555.515,-84.46
1555.52,-85.92
1555.525,-88.65
1555.53,-210.0
1555.535,-210.0
1555.54,-210.0
1555.545,-88.65
1555.55,-85.38
1555.555,-82.91
1555.56,-88.65
1555.565,-210.0
1555.57,-97.68
1555.575,-210.0
1555.58,-86.55
1555.585,-82.37
1555.59,-83.88
1555.595,-210.0
1555.6,-210.0
1555.605,-94.67
1555.61,-210.0
1555.615,-88.65
1555.62,-88.65
1555.625,-210.0
1555.63,-210.0
1555.635,-94.67
1555.64,-210.0
1555.645,-85.13
1555.65,-82.0
1555.655,-82.37
1555.66,-210.0
1555.665,-210.0
1555.67,-210.0
1555.675,-86.55
1555.68,-90.69
1555.685,-89.23
1555.69,-210.0
1555.695,-89.9
1555.7,-90.69
1555.705,-210.0
1555.71,-210.0
1555.715,-210.0
1555.72,-97.68
1555.725,-210.0
1555.73,-210.0
1555.735,-210.0
1555.74,-210.0
1555.745,-210.0
1555.75,-91.66
1555.755,-82.37
1555.76,-210.0
1555.765,-210.0
1555.77,-210.0
1555.775,-90.69
1555.78,-92.91
1555.785,-210.0
1555.79,-94.67
1555.795,-210.0
1555.8,-88.65
1555.805,-210.0
1555.81,-210.0
1555.815,-210.0
1555.82,-210.0
1555.825,-210.0
1555.83,-84.26
1555.835,-91.66
1555.84,-84.26
1555.845,-80.78
1555.85,-82.24
1555.855,-84.9
1555.86,-210.0
1555.865,-210.0
1555.87,-210.0
1555.875,-97.68
1555.88,-210.0
1555.885,-92.91
1555.89,-84.46
1555.895,-86.89
1555.9,-81.45
1555.905,-90.69
1555.91,-210.0
1555.915,-88.65
1555.92,-210.0
1555.925,-210.0
1555.93,-90.69
1555.935,-86.89
1555.94,-82.63
1555.945,-89.9
1555.95,-210.0
1555.955,-210.0
1555.96,-210.0
1555.965,-210.0
1555.97,-86.55
1555.975,-83.53
1555.98,-88.14
1555.985,-210.0
1555.99,-210.0
1555.995,-210.0
1556.0,-210.0
1556.005,-86.89
1556.01,-210.0
1556.015,-82.91
1556.02,-86.22
1556.025,-210.0
1556.03,-210.0
1556.035,-86.89
1556.04,-86.89
1556.045,-87.68
1556.05,-85.92
1556.055,-210.0
1556.06,-210.0
1556.065,-210.0
1556.07,-90.69
1556.075,-210.0
1556.08,-87.27
1556.085,-84.67
1556.09,-85.92
1556.095,-84.67
1556.1,-91.66
1556.105,-210.0
1556.11,-85.13
1556.115,-85.92
1556.12,-86.55
1556.125,-210.0
1556.13,-210.0
1556.135,-91.66
1556.14,-210.0
1556.145,-210.0
1556.15,-97.68
1556.155,-210.0
1556.16,-210.0
1556.165,-210.0
1556.17,-210.0
1556.175,-210.0
1556.18,-210.0
1556.185,-210.0
1556.19,-210.0
1556.195,-86.89
1556.2,-210.0
1556.205,-210.0
1556.21,-210.0
1556.215,-210.0
1556.22,-210.0
1556.225,-210.0
1556.23,-210.0
1556.235,-210.0
1556.24,-210.0
1556.245,-91.66
1556.25,-210.0
1556.255,-210.0
1556.26,-210.0
1556.265,-86.22
1556.27,-88.65
1556.275,-87.27
1556.28,-85.92
1556.285,-94.67
1556.29,-88.14
1556.295,-97.68
1556.3,-210.0
1556.305,-83.88
1556.31,-91.66
1556.315,-210.0
1556.32,-210.0
1556.325,-210.0
1556.33,-210.0
1556.335,-94.67
1556.34,-210.0
1556.345,-210.0
1556.35,-210.0
1556.355,-94.67
1556.36,-90.69
1556.365,-84.46
1556.37,-88.14
1556.375,-82.24
1556.38,-84.26
1556.385,-94.67
1556.39,-210.0
1556.395,-210.0
1556.4,-210.0
1556.405,-210.0
1556.41,-210.0
1556.415,-87.68
1556.42,-84.26
1556.425,-92.91
1556.43,-210.0
1556.435,-210.0
1556.44,-210.0
1556.445,-210.0
1556.45,-210.0
1556.455,-84.66
1556.46,-84.45
1556.465,-210.0
1556.47,-210.0
1556.475,-210.0
1556.48,-210.0
1556.485,-210.0
1556.49,-210.0
1556.495,-88.64
1556.5,-83.87
1556.505,-89.89
1556.51,-94.66
1556.515,-210.0
1556.52,-210.0
1556.525,-210.0
1556.53,-85.63
1556.535,-87.67
1556.54,-210.0
1556.545,-210.0
1556.55,-210.0
1556.555,-210.0
1556.56,-87.26
1556.565,-88.64
1556.57,-210.0
1556.575,-210.0
1556.58,-210.0
1556.585,-84.45
1556.59,-87.67
1556.595,-210.0
1556.6,-210.0
1556.605,-81.34
1556.61,-83.2
1556.615,-210.0
1556.62,-97.67
1556.625,-210.0
1556.63,-210.0
1556.635,-97.67
1556.64,-88.64
1556.645,-86.54
1556.65,-210.0
1556.655,-89.22
1556.66,-82.9
1556.665,-88.13
1556.67,-210.0
1556.675,-210.0
1556.68,-210.0
1556.685,-210.0
1556.69,-210.0
1556.695,-210.0
1556.7,-210.0
1556.705,-92.9
1556.71,-81.14
1556.715,-81.88
1556.72,-210.0
1556.725,-210.0
1556.73,-87.26
1556.735,-83.7
1556.74,-210.0
1556.745,-210.0
1556.75,-210.0
1556.755,-210.0
1556.76,-210.0
1556.765,-210.0
1556.77,-84.66
1556.775,-94.66
1556.78,-210.0
1556.785,-210.0
1556.79,-210.0
1556.795,-210.0
1556.8,-210.0
1556.805,-210.0
1556.81,-90.68
1556.815,-91.65
1556.82,-210.0
1556.825,-210.0
1556.83,-82.11
1556.835,-88.64
1556.84,-210.0
1556.845,-210.0
1556.85,-88.64
1556.855,-210.0
1556.86,-84.45
1556.865,-87.67
1556.87,-87.67
1556.875,-210.0
1556.88,-210.0
1556.885,-210.0
1556.89,-210.0
1556.895,-86.54
1556.9,-88.64
1556.905,-210.0
1556.91,-86.54
1556.915,-94.66
1556.92,-210.0
1556.925,-86.54
1556.93,-84.45
1556.935,-84.66
1556.94,-85.63
1556.945,-86.54
1556.95,-86.88
1556.955,-86.54
1556.96,-88.64
1556.965,-89.89
1556.97,-210.0
1556.975,-210.0
1556.98,-88.13
1556.985,-90.68
1556.99,-210.0
1556.995,-210.0
1557.0,-210.0
1557.005,-210.0
1557.01,-90.68
1557.015,-94.66
1557.02,-210.0
1557.025,-210.0
1557.03,-210.0
1557.035,-210.0
1557.04,-210.0
1557.045,-86.21
1557.05,-83.87
1557.055,-88.13
1557.06,-83.87
1557.065,-92.9
1557.07,-210.0
1557.075,-89.89
1557.08,-90.68
1557.085,-86.21
1557.09,-84.89
1557.095,-87.67
1557.1,-210.0
1557.105,-210.0
1557.11,-210.0
1557.115,-210.0
1557.12,-210.0
1557.125,-84.45
1557.13,-210.0
1557.135,-210.0
1557.14,-84.45
1557.145,-210.0
1557.15,-210.0
1557.155,-84.89
1557.16,-92.9
1557.165,-85.63
1557.17,-88.13
1557.175,-210.0
1557.18,-210.0
1557.185,-85.63
1557.19,-83.52
1557.195,-91.65
1557.2,-210.0
1557.205,-210.0
1557.21,-86.21
1557.215,-210.0
1557.22,-210.0
1557.225,-83.36
1557.23,-81.99
1557.235,-84.25
1557.24,-80.95
1557.245,-97.67
1557.25,-210.0
1557.255,-210.0
1557.26,-210.0
1557.265,-210.0
1557.27,-90.68
1557.275,-210.0
1557.28,-210.0
1557.285,-86.88
1557.29,-210.0
1557.295,-210.0
1557.3,-210.0
1557.305,-210.0
1557.31,-210.0
1557.315,-83.87
1557.32,-85.91
1557.325,-86.21
1557.33,-91.65
1557.335,-88.64
1557.34,-210.0
1557.345,-210.0
1557.35,-210.0
1557.355,-81.44
1557.36,-85.63
1557.365,-89.22
1557.37,-87.67
1557.375,-85.37
1557.38,-88.13
1557.385,-85.63
1557.39,-85.12
1557.395,-86.88
1557.4,-210.0
1557.405,-210.0
1557.41,-210.0
1557.415,-210.0
1557.42,-210.0
1557.425,-85.12
1557.43,-81.98
1557.435,-86.87
1557.44,-97.66
1557.445,-210.0
1557.45,-210.0
1557.455,-88.63
1557.46,-210.0
1557.465,-210.0
1557.47,-97.66
1557.475,-210.0
1557.48,-83.35
1557.485,-81.75
1557.49,-210.0
1557.495,-210.0
1557.5,-210.0
1557.505,-210.0
1557.51,-210.0
1557.515,-210.0
1557.52,-210.0
1557.525,-210.0
1557.53,-85.62
1557.535,-90.67
1557.54,-210.0
1557.545,-85.36
1557.55,-210.0
1557.555,-87.66
1557.56,-86.53
1557.565,-210.0
1557.57,-210.0
1557.575,-91.64
1557.58,-80.85
1557.585,-82.1
1557.59,-210.0
1557.595,-87.66
1557.6,-91.64
1557.605,-210.0
1557.61,-210.0
1557.615,-210.0
1557.62,-210.0
1557.625,-88.63
1557.63,-88.12
1557.635,-88.12
1557.64,-92.89
1557.645,-210.0
1557.65,-210.0
1557.655,-210.0
1557.66,-210.0
1557.665,-210.0
1557.67,-87.66
1557.675,-210.0
1557.68,-90.67
1557.685,-210.0
1557.69,-210.0
1557.695,-82.22
1557.7,-82.48
1557.705,-83.19
1557.71,-81.54
1557.715,-88.63
1557.72,-94.65
1557.725,-210.0
1557.73,-97.66
1557.735,-85.11
1557.74,-83.86
1557.745,-85.62
1557.75,-210.0
1557.755,-88.63
1557.76,-85.11
1557.765,-210.0
1557.77,-210.0
1557.775,-210.0
1557.78,-97.66
1557.785,-210.0
1557.79,-83.86
1557.795,-84.44
1557.8,-85.36
1557.805,-85.11
1557.81,-86.2
1557.815,-210.0
1557.82,-210.0
1557.825,-210.0
1557.83,-94.65
1557.835,-210.0
1557.84,-210.0
1557.845,-210.0
1557.85,-83.86
1557.855,-81.64
1557.86,-210.0
1557.865,-210.0
1557.87,-210.0
1557.875,-210.0
1557.88,-85.11
1557.885,-83.04
1557.89,-83.86
1557.895,-210.0
1557.9,-210.0
1557.905,-210.0
1557.91,-210.0
1557.915,-210.0
1557.92,-210.0
1557.925,-210.0
1557.93,-86.87
1557.935,-94.65
1557.94,-210.0
1557.945,-86.2
1557.95,-89.21
1557.955,-86.2
1557.96,-83.51
1557.965,-83.04
1557.97,-83.04
1557.975,-91.64
1557.98,-210.0
1557.985,-83.86
1557.99,-85.11
1557.995,-88.63
1558.0,-210.0
1558.005,-210.0
1558.01,-210.0
1558.015,-210.0
1558.02,-210.0
1558.025,-210.0
1558.03,-86.53
1558.035,-86.2
1558.04,-210.0
1558.045,-86.2
1558.05,-81.43
1558.055,-81.43
1558.06,-97.66
1558.065,-97.66
1558.07,-210.0
1558.075,-210.0
1558.08,-210.0
1558.085,-210.0
1558.09,-90.67
1558.095,-210.0
1558.1,-87.25
1558.105,-83.35
1558.11,-91.64
1558.115,-210.0
1558.12,-86.53
1558.125,-87.25
1558.13,-210.0
1558.135,-94.65
1558.14,-86.87
1558.145,-85.11
1558.15,-86.87
1558.155,-210.0
1558.16,-88.63
1558.165,-87.66
1558.17,-90.67
1558.175,-210.0
1558.18,-210.0
1558.185,-84.88
1558.19,-81.54
1558.195,-85.62
1558.2,-97.66
1558.205,-94.65
1558.21,-89.88
1558.215,-81.64
1558.22,-81.75
1558.225,-84.24
1558.23,-86.2
1558.235,-210.0
1558.24,-84.88
1558.245,-84.24
1558.25,-85.62
1558.255,-210.0
1558.26,-210.0
1558.265,-210.0
1558.27,-210.0
1558.275,-210.0
1558.28,-88.63
1558.285,-88.63
1558.29,-92.89
1558.295,-210.0
1558.3,-92.89
1558.305,-210.0
1558.31,-210.0
1558.315,-89.88
1558.32,-83.69
1558.325,-83.51
1558.33,-86.53
1558.335,-210.0
1558.34,-210.0
1558.345,-210.0
1558.35,-210.0
1558.355,-210.0
1558.36,-210.0
1558.365,-210.0
1558.37,-210.0
1558.375,-83.51
1558.38,-86.87
1558.385,-84.65
1558.39,-84.44
1558.395,-87.66
1558.4,-94.65
1558.405,-210.0
1558.41,-84.24
1558.415,-210.0
1558.42,-210.0
1558.425,-210.0
1558.43,-210.0
1558.435,-210.0
1558.44,-94.65
1558.445,-210.0
1558.45,-87.66
1558.455,-83.04
1558.46,-91.64
1558.465,-210.0
1558.47,-210.0
1558.475,-210.0
1558.48,-210.0
1558.485,-210.0
1558.49,-210.0
1558.495,-210.0
1558.5,-210.0
1558.505,-94.65
1558.51,-81.64
1558.515,-85.62
1558.52,-85.11
1558.525,-210.0
1558.53,-210.0
1558.535,-210.0
1558.54,-210.0
1558.545,-210.0
1558.55,-92.89
1558.555,-210.0
1558.56,-210.0
1558.565,-84.88
1558.57,-210.0
1558.575,-210.0
1558.58,-210.0
1558.585,-94.65
1558.59,-85.11
1558.595,-84.44
1558.6,-210.0
1558.605,-210.0
1558.61,-210.0
1558.615,-90.67
1558.62,-82.48
1558.625,-82.89
1558.63,-92.89
1558.635,-210.0
1558.64,-210.0
1558.645,-210.0
1558.65,-210.0
1558.655,-210.0
1558.66,-82.89
1558.665,-81.64
1558.67,-80.42
1558.675,-85.36
1558.68,-210.0
1558.685,-210.0
1558.69,-210.0
1558.695,-210.0
1558.7,-92.89
1558.705,-210.0
1558.71,-210.0
1558.715,-97.66
1558.72,-85.62
1558.725,-210.0
1558.73,-210.0
1558.735,-210.0
1558.74,-89.21
1558.745,-210.0
1558.75,-210.0
1558.755,-94.65
1558.76,-83.35
1558.765,-80.42
1558.77,-88.12
1558.775,-210.0
1558.78,-210.0
1558.785,-210.0
1558.79,-86.87
1558.795,-88.63
1558.8,-210.0
1558.805,-210.0
1558.81,-210.0
1558.815,-210.0
1558.82,-86.53
1558.825,-85.11
1558.83,-210.0
1558.835,-88.63
1558.84,-89.88
1558.845,-87.66
1558.85,-86.87
1558.855,-92.89
1558.86,-210.0
1558.865,-88.63
1558.87,-85.9
1558.875,-85.62
1558.88,-210.0
1558.885,-89.21
1558.89,-80.94
1558.895,-80.67
1558.9,-82.61
1558.905,-83.86
1558.91,-210.0
1558.915,-210.0
1558.92,-210.0
1558.925,-210.0
1558.93,-210.0
1558.935,-210.0
1558.94,-210.0
1558.945,-210.0
1558.95,-210.0
1558.955,-89.21
1558.96,-83.86
1558.965,-210.0
1558.97,-210.0
1558.975,-90.67
1558.98,-88.63
1558.985,-94.65
1558.99,-210.0
1558.995,-90.67
1559.0,-210.0
1559.005,-210.0
1559.01,-210.0
1559.015,-97.66
1559.02,-210.0
1559.025,-210.0
1559.03,-210.0
1559.035,-210.0
1559.04,-210.0
1559.045,-85.11
1559.05,-210.0
1559.055,-86.53
1559.06,-82.61
1559.065,-86.87
1559.07,-97.66
1559.075,-86.2
1559.08,-84.88
1559.085,-210.0
1559.09,-210.0
1559.095,-210.0
1559.1,-210.0
1559.105,-210.0
1559.11,-210.0
1559.115,-210.0
1559.12,-210.0
1559.125,-89.88
1559.13,-89.88
1559.135,-210.0
1559.14,-210.0
1559.145,-210.0
1559.15,-97.66
1559.155,-91.64
1559.16,-210.0
1559.165,-91.64
1559.17,-210.0
1559.175,-210.0
1559.18,-210.0
1559.185,-210.0
1559.19,-210.0
1559.195,-210.0
1559.2,-210.0
1559.205,-210.0
1559.21,-210.0
1559.215,-210.0
1559.22,-210.0
1559.225,-210.0
1559.23,-210.0
1559.235,-210.0
1559.24,-210.0
1559.245,-210.0
1559.25,-210.0
1559.255,-83.51
1559.26,-84.88
1559.265,-85.36
1559.27,-97.66
1559.275,-210.0
1559.28,-210.0
1559.285,-83.86
1559.29,-80.67
1559.295,-79.28
1559.3,-81.87
1559.305,-89.88
1559.31,-91.64
1559.315,-210.0
1559.32,-88.63
1559.325,-84.24
1559.33,-210.0
1559.335,-210.0
1559.34,-88.12
1559.345,-81.75
1559.35,-82.89
1559.355,-210.0
1559.36,-210.0
1559.365,-210.0
1559.37,-83.19
1559.375,-85.11
1559.38,-210.0
1559.385,-85.62
1559.39,-83.51
1559.395,-90.67
1559.4,-210.0
1559.405,-84.65
1559.41,-83.86
1559.415,-210.0
1559.42,-210.0
1559.425,-210.0
1559.43,-210.0
1559.435,-86.86
1559.44,-82.88
1559.445,-210.0
1559.45,-91.63
1559.455,-210.0
1559.46,-210.0
1559.465,-210.0
1559.47,-84.64
1559.475,-82.47
1559.48,-86.52
1559.485,-83.18
1559.49,-85.61
1559.495,-87.24
1559.5,-210.0
1559.505,-210.0
1559.51,-92.88
1559.515,-82.6
1559.52,-81.86
1559.525,-83.18
1559.53,-210.0
1559.535,-210.0
1559.54,-210.0
1559.545,-210.0
1559.55,-210.0
1559.555,-210.0
1559.56,-210.0
1559.565,-210.0
1559.57,-210.0
1559.575,-210.0
1559.58,-210.0
1559.585,-210.0
1559.59,-82.09
1559.595,-83.5
1559.6,-84.43
1559.605,-210.0
1559.61,-210.0
1559.615,-97.65
1559.62,-87.24
1559.625,-97.65
1559.63,-210.0
1559.635,-210.0
1559.64,-210.0
1559.645,-210.0
1559.65,-86.52
1559.655,-210.0
1559.66,-210.0
1559.665,-85.35
1559.67,-86.86
1559.675,-86.19
1559.68,-210.0
1559.685,-210.0
1559.69,-210.0
1559.695,-210.0
1559.7,-210.0
1559.705,-210.0
1559.71,-210.0
1559.715,-210.0
1559.72,-210.0
1559.725,-210.0
1559.73,-210.0
1559.735,-88.62
1559.74,-84.23
1559.745,-84.23
1559.75,-210.0
1559.755,-210.0
1559.76,-210.0
1559.765,-83.18
1559.77,-83.03
1559.775,-85.1
1559.78,-210.0
1559.785,-210.0
1559.79,-210.0
1559.795,-210.0
1559.8,-210.0
1559.805,-210.0
1559.81,-210.0
1559.815,-210.0
1559.82,-85.61
1559.825,-91.63
1559.83,-210.0
1559.835,-210.0
1559.84,-210.0
1559.845,-91.63
1559.85,-88.11
1559.855,-210.0
1559.86,-210.0
1559.865,-210.0
1559.87,-97.65
1559.875,-89.2
1559.88,-210.0
1559.885,-210.0
1559.89,-210.0
1559.895,-210.0
1559.9,-81.74
1559.905,-82.34
1559.91,-210.0
1559.915,-210.0
1559.92,-210.0
1559.925,-210.0
1559.93,-84.23
1559.935,-85.35
1559.94,-210.0
1559.945,-210.0
1559.95,-210.0
1559.955,-94.64
1559.96,-87.65
1559.965,-210.0
1559.97,-210.0
1559.975,-210.0
1559.98,-91.63
1559.985,-87.65
1559.99,-84.23
1559.995,-84.23
1560.0,-86.86
1560.005,-85.1
1560.01,-82.34
1560.015,-83.5
1560.02,-83.03
1560.025,-83.85
1560.03,-89.87
1560.035,-210.0
1560.04,-88.62
1560.045,-83.85
1560.05,-94.64
1560.055,-85.35
1560.06,-87.65
1560.065,-210.0
1560.07,-210.0
1560.075,-89.2
1560.08,-84.43
1560.085,-83.85
1560.09,-87.65
1560.095,-86.19
1560.1,-86.52
1560.105,-86.52
1560.11,-210.0
1560.115,-210.0
1560.12,-210.0
1560.125,-84.23
1560.13,-90.66
1560.135,-210.0
1560.14,-94.64
1560.145,-97.65
1560.15,-85.1
1560.155,-85.35
1560.16,-210.0
1560.165,-97.65
1560.17,-88.62
1560.175,-85.1
1560.18,-80.58
1560.185,-83.34
1560.19,-210.0
1560.195,-210.0
1560.2,-87.24
1560.205,-210.0
1560.21,-210.0
1560.215,-210.0
1560.22,-210.0
1560.225,-94.64
1560.23,-210.0
1560.235,-89.87
1560.24,-87.65
1560.245,-83.68
1560.25,-83.34
1560.255,-82.34
1560.26,-88.11
1560.265,-210.0
1560.27,-94.64
1560.275,-83.85
1560.28,-210.0
1560.285,-210.0
1560.29,-210.0
1560.295,-210.0
1560.3,-210.0
1560.305,-210.0
1560.31,-86.86
1560.315,-89.2
1560.32,-85.35
1560.325,-210.0
1560.33,-210.0
1560.335,-210.0
1560.34,-85.1
1560.345,-84.43
1560.35,-210.0
1560.355,-85.1
1560.36,-84.87
1560.365,-210.0
1560.37,-210.0
1560.375,-92.88
1560.38,-82.34
1560.385,-89.2
1560.39,-91.63
1560.395,-210.0
1560.4,-210.0
1560.405,-210.0
1560.41,-210.0
1560.415,-210.0
1560.42,-210.0
1560.425,-210.0
1560.43,-210.0
1560.435,-210.0
1560.44,-88.62
1560.445,-210.0
1560.45,-210.0
1560.455,-85.89
1560.46,-83.5
1560.465,-81.97
1560.47,-83.34
1560.475,-210.0
1560.48,-210.0
1560.485,-210.0
1560.49,-91.63
1560.495,-210.0
1560.5,-210.0
1560.505,-210.0
1560.51,-210.0
1560.515,-210.0
1560.52,-89.2
1560.525,-210.0
1560.53,-97.65
1560.535,-210.0
1560.54,-210.0
1560.545,-97.65
1560.55,-210.0
1560.555,-210.0
1560.56,-86.52
1560.565,-83.18
1560.57,-85.35
1560.575,-85.61
1560.58,-210.0
1560.585,-90.66
1560.59,-210.0
1560.595,-210.0
1560.6,-210.0
1560.605,-210.0
1560.61,-89.87
1560.615,-83.18
1560.62,-94.64
1560.625,-210.0
1560.63,-210.0
1560.635,-210.0
1560.64,-91.63
1560.645,-86.52
1560.65,-90.66
1560.655,-210.0
1560.66,-210.0
1560.665,-210.0
1560.67,-210.0
1560.675,-210.0
1560.68,-83.5
1560.685,-80.93
1560.69,-81.86
1560.695,-90.66
1560.7,-85.1
1560.705,-86.86
1560.71,-210.0
1560.715,-210.0
1560.72,-86.86
1560.725,-210.0
1560.73,-210.0
1560.735,-210.0
1560.74,-210.0
1560.745,-210.0
1560.75,-86.19
1560.755,-210.0
1560.76,-210.0
1560.765,-210.0
1560.77,-210.0
1560.775,-210.0
1560.78,-210.0
1560.785,-85.61
1560.79,-81.74
1560.795,-210.0
1560.8,-210.0
1560.805,-210.0
1560.81,-83.03
1560.815,-82.34
1560.82,-85.61
1560.825,-85.61
1560.83,-210.0
1560.835,-210.0
1560.84,-210.0
1560.845,-210.0
1560.85,-210.0
1560.855,-90.66
1560.86,-86.52
1560.865,-92.88
1560.87,-83.5
1560.875,-210.0
1560.88,-210.0
1560.885,-210.0
1560.89,-89.2
1560.895,-86.19
1560.9,-97.65
1560.905,-86.19
1560.91,-84.43
1560.915,-84.64
1560.92,-88.11
1560.925,-210.0
1560.93,-86.86
1560.935,-87.24
1560.94,-83.34
1560.945,-84.64
1560.95,-82.21
1560.955,-84.43
1560.96,-83.5
1560.965,-87.24
1560.97,-89.87
1560.975,-210.0
1560.98,-210.0
1560.985,-91.63
1560.99,-87.65
1560.995,-210.0
1561.0,-210.0
1561.005,-87.65
1561.01,-87.65
1561.015,-210.0
1561.02,-210.0
1561.025,-90.66
1561.03,-91.63
1561.035,-210.0
1561.04,-210.0
1561.045,-210.0
1561.05,-210.0
1561.055,-210.0
1561.06,-210.0
1561.065,-210.0
1561.07,-210.0
1561.075,-85.1
1561.08,-82.34
1561.085,-81.63
1561.09,-87.65
1561.095,-210.0
1561.1,-210.0
1561.105,-210.0
1561.11,-210.0
1561.115,-210.0
1561.12,-210.0
1561.125,-210.0
1561.13,-210.0
1561.135,-210.0
1561.14,-94.64
1561.145,-83.18
1561.15,-85.1
1561.155,-89.2
1561.16,-85.1
1561.165,-88.62
1561.17,-210.0
1561.175,-210.0
1561.18,-210.0
1561.185,-92.88
1561.19,-210.0
1561.195,-210.0
1561.2,-210.0
1561.205,-210.0
1561.21,-210.0
1561.215,-210.0
1561.22,-81.97
1561.225,-81.42
1561.23,-84.87
1561.235,-87.65
1561.24,-210.0
1561.245,-91.63
1561.25,-210.0
1561.255,-210.0
1561.26,-210.0
1561.265,-210.0
1561.27,-83.5
1561.275,-83.34
1561.28,-89.87
1561.285,-210.0
1561.29,-94.64
1561.295,-210.0
1561.3,-210.0
1561.305,-210.0
1561.31,-210.0
1561.315,-210.0
1561.32,-210.0
1561.325,-210.0
1561.33,-210.0
1561.335,-90.66
1561.34,-82.74
1561.345,-84.23
1561.35,-89.87
1561.355,-210.0
1561.36,-210.0
1561.365,-210.0
1561.37,-210.0
1561.375,-89.87
1561.38,-210.0
1561.385,-210.0
1561.39,-210.0
1561.395,-210.0
1561.4,-86.52
1561.405,-210.0
1561.41,-210.0
1561.415,-210.0
1561.42,-210.0
1561.425,-210.0
1561.43,-83.85
1561.435,-83.5
1561.44,-210.0
1561.445,-210.0
1561.45,-210.0
1561.455,-210.0
1561.46,-210.0
1561.465,-84.87
1561.47,-85.35
1561.475,-91.63
1561.48,-84.43
1561.485,-85.35
1561.49,-89.87
1561.495,-210.0
1561.5,-210.0
1561.505,-94.64
1561.51,-86.19
1561.515,-86.19
1561.52,-89.87
1561.525,-210.0
1561.53,-210.0
1561.535,-91.63
1561.54,-210.0
1561.545,-94.64
1561.55,-89.2
1561.555,-90.66
1561.56,-210.0
1561.565,-210.0
1561.57,-85.61
1561.575,-82.74
1561.58,-210.0
1561.585,-86.52
1561.59,-83.34
1561.595,-80.84
1561.6,-85.35
1561.605,-210.0
1561.61,-86.86
1561.615,-83.5
1561.62,-210.0
1561.625,-210.0
1561.63,-210.0
1561.635,-97.65
1561.64,-86.52
1561.645,-82.88
1561.65,-80.58
1561.655,-85.35
1561.66,-210.0
1561.665,-210.0
1561.67,-94.64
1561.675,-86.52
1561.68,-83.18
1561.685,-83.85
1561.69,-210.0
1561.695,-210.0
1561.7,-210.0
1561.705,-210.0
1561.71,-83.03
1561.715,-82.47
1561.72,-86.52
1561.725,-86.52
1561.73,-83.5
1561.735,-89.2
1561.74,-85.1
1561.745,-84.87
1561.75,-91.63
1561.755,-97.65
1561.76,-210.0
1561.765,-210.0
1561.77,-210.0
1561.775,-210.0
1561.78,-88.62
1561.785,-210.0
1561.79,-91.63
1561.795,-84.23
1561.8,-210.0
1561.805,-210.0
1561.81,-89.87
1561.815,-94.64
1561.82,-210.0
1561.825,-210.0
1561.83,-210.0
1561.835,-210.0
1561.84,-210.0
1561.845,-210.0
1561.85,-210.0
1561.855,-210.0
1561.86,-210.0
1561.865,-88.62
1561.87,-84.87
1561.875,-85.89
1561.88,-86.19
1561.885,-210.0
1561.89,-84.23
1561.895,-210.0
1561.9,-210.0
1561.905,-88.62
1561.91,-82.74
1561.915,-82.34
1561.92,-84.64
1561.925,-210.0
1561.93,-210.0
1561.935,-210.0
1561.94,-210.0
1561.945,-210.0
1561.95,-83.34
1561.955,-83.5
1561.96,-85.61
1561.965,-83.85
1561.97,-82.47
1561.975,-94.64
1561.98,-210.0
1561.985,-85.89
1561.99,-82.6
1561.995,-94.64
1562.0,-210.0
1562.005,-210.0
1562.01,-210.0
1562.015,-86.19
1562.02,-88.62
1562.025,-210.0
1562.03,-210.0
1562.035,-88.62
1562.04,-94.64
1562.045,-210.0
1562.05,-210.0
1562.055,-210.0
1562.06,-210.0
1562.065,-210.0
1562.07,-210.0
1562.075,-210.0
1562.08,-210.0
1562.085,-84.64
1562.09,-210.0
1562.095,-210.0
1562.1,-210.0
1562.105,-210.0
1562.11,-88.62
1562.115,-83.5
1562.12,-84.87
1562.125,-81.86
1562.13,-85.1
1562.135,-84.64
1562.14,-210.0
1562.145,-210.0
1562.15,-210.0
1562.155,-210.0
1562.16,-87.24
1562.165,-84.64
1562.17,-210.0
1562.175,-210.0
1562.18,-97.65
1562.185,-87.65
1562.19,-210.0
1562.195,-94.64
1562.2,-86.86
1562.205,-86.52
1562.21,-85.61
1562.215,-85.1
1562.22,-91.63
1562.225,-85.89
1562.23,-210.0
1562.235,-210.0
1562.24,-210.0
1562.245,-84.64
1562.25,-83.5
1562.255,-86.19
1562.26,-210.0
1562.265,-210.0
1562.27,-210.0
1562.275,-210.0
1562.28,-88.62
1562.285,-85.61
1562.29,-210.0
1562.295,-210.0
1562.3,-86.52
1562.305,-210.0
1562.31,-86.19
1562.315,-83.5
1562.32,-82.47
1562.325,-83.34
1562.33,-88.62
1562.335,-210.0
1562.34,-210.0
1562.345,-210.0
1562.35,-210.0
1562.355,-87.65
1562.36,-210.0
1562.365,-210.0
1562.37,-210.0
1562.375,-94.64
1562.38,-83.5
1562.385,-92.88
1562.39,-210.0
1562.395,-85.89
1562.4,-83.18
1562.405,-85.1
1562.41,-210.0
1562.415,-210.0
1562.42,-210.0
1562.425,-97.65
1562.43,-83.51
1562.435,-89.88
1562.44,-90.67
1562.445,-87.66
1562.45,-210.0
1562.455,-210.0
1562.46,-210.0
1562.465,-210.0
1562.47,-86.2
1562.475,-82.61
1562.48,-83.51
1562.485,-85.36
1562.49,-85.62
1562.495,-86.87
1562.5,-87.66
1562.505,-86.87
1562.51,-84.24
1562.515,-82.1
1562.52,-80.85
1562.525,-81.98
1562.53,-88.63
1562.535,-84.44
1562.54,-80.85
1562.545,-80.42
1562.55,-84.24
1562.555,-210.0
1562.56,-210.0
1562.565,-86.2
1562.57,-86.2
1562.575,-210.0
1562.58,-88.63
1562.585,-90.67
1562.59,-83.19
1562.595,-85.36
1562.6,-83.35
1562.605,-84.24
1562.61,-210.0
1562.615,-210.0
1562.62,-210.0
1562.625,-210.0
1562.63,-210.0
1562.635,-88.12
1562.64,-84.24
1562.645,-84.88
1562.65,-210.0
1562.655,-210.0
1562.66,-87.66
1562.665,-83.69
1562.67,-87.25
1562.675,-210.0
1562.68,-85.62
1562.685,-210.0
1562.69,-89.88
1562.695,-210.0
1562.7,-210.0
1562.705,-210.0
1562.71,-89.88
1562.715,-85.11
1562.72,-86.87
1562.725,-88.63
1562.73,-83.51
1562.735,-81.54
1562.74,-85.36
1562.745,-210.0
1562.75,-210.0
1562.755,-86.87
1562.76,-82.35
1562.765,-81.87
1562.77,-83.19
1562.775,-85.36
1562.78,-87.66
1562.785,-82.35
1562.79,-84.24
1562.795,-88.63
1562.8,-210.0
1562.805,-210.0
1562.81,-210.0
1562.815,-210.0
1562.82,-210.0
1562.825,-210.0
1562.83,-84.88
1562.835,-83.04
1562.84,-84.44
1562.845,-81.87
1562.85,-82.89
1562.855,-210.0
1562.86,-86.2
1562.865,-91.64
1562.87,-210.0
1562.875,-84.65
1562.88,-83.04
1562.885,-83.04
1562.89,-210.0
1562.895,-210.0
1562.9,-88.12
1562.905,-83.69
1562.91,-88.63
1562.915,-210.0
1562.92,-83.86
1562.925,-85.9
1562.93,-97.66
1562.935,-210.0
1562.94,-210.0
1562.945,-91.64
1562.95,-210.0
1562.955,-87.25
1562.96,-210.0
1562.965,-210.0
1562.97,-87.66
1562.975,-88.63
1562.98,-210.0
1562.985,-210.0
1562.99,-210.0
1562.995,-210.0
1563.0,-210.0
1563.005,-83.51
1563.01,-82.22
1563.015,-83.69
1563.02,-90.67
1563.025,-88.63
1563.03,-88.12
1563.035,-88.63
1563.04,-92.89
1563.045,-82.35
1563.05,-84.65
1563.055,-210.0
1563.06,-210.0
1563.065,-210.0
1563.07,-210.0
1563.075,-88.63
1563.08,-97.66
1563.085,-87.66
1563.09,-83.86
1563.095,-84.88
1563.1,-90.67
1563.105,-97.66
1563.11,-210.0
1563.115,-91.64
1563.12,-83.51
1563.125,-87.66
1563.13,-85.11
1563.135,-82.1
1563.14,-94.65
1563.145,-210.0
1563.15,-210.0
1563.155,-210.0
1563.16,-84.65
1563.165,-85.11
1563.17,-210.0
1563.175,-89.21
1563.18,-210.0
1563.185,-94.65
1563.19,-81.98
1563.195,-80.59
1563.2,-80.67
1563.205,-82.1
1563.21,-82.61
1563.215,-85.11
1563.22,-85.36
1563.225,-85.36
1563.23,-210.0
1563.235,-210.0
1563.24,-83.19
1563.245,-81.04
1563.25,-88.12
1563.255,-92.89
1563.26,-88.63
1563.265,-210.0
1563.27,-210.0
1563.275,-84.24
1563.28,-89.21
1563.285,-210.0
1563.29,-85.11
1563.295,-85.36
1563.3,-85.36
1563.305,-82.75
1563.31,-83.86
1563.315,-210.0
1563.32,-210.0
1563.325,-85.11
1563.33,-85.9
1563.335,-87.25
1563.34,-87.66
1563.345,-94.65
1563.35,-210.0
1563.355,-94.65
1563.36,-210.0
1563.365,-210.0
1563.37,-210.0
1563.375,-91.64
1563.38,-85.11
1563.385,-86.2
1563.39,-82.89
1563.395,-83.51
1563.4,-210.0
1563.405,-210.0
1563.41,-88.63
1563.415,-85.62
1563.42,-86.87
1563.425,-84.65
1563.43,-210.0
1563.435,-210.0
1563.44,-210.0
1563.445,-210.0
1563.45,-86.86
1563.455,-210.0
1563.46,-97.65
1563.465,-83.85
1563.47,-81.32
1563.475,-81.42
1563.48,-89.87
1563.485,-89.87
1563.49,-85.89
1563.495,-88.62
1563.5,-88.62
1563.505,-210.0
1563.51,-210.0
1563.515,-210.0
1563.52,-210.0
1563.525,-91.63
1563.53,-83.18
1563.535,-210.0
1563.54,-91.63
1563.545,-94.64
1563.55,-91.63
1563.555,-210.0
1563.56,-83.85
1563.565,-83.18
1563.57,-84.43
1563.575,-210.0
1563.58,-210.0
1563.585,-210.0
1563.59,-210.0
1563.595,-210.0
1563.6,-90.66
1563.605,-90.66
1563.61,-210.0
1563.615,-210.0
1563.62,-210.0
1563.625,-91.63
1563.63,-92.88
1563.635,-91.63
1563.64,-83.85
1563.645,-82.6
1563.65,-81.97
1563.655,-82.6
1563.66,-97.65
1563.665,-88.11
1563.67,-210.0
1563.675,-86.86
1563.68,-86.19
1563.685,-87.24
1563.69,-83.5
1563.695,-85.1
1563.7,-85.1
1563.705,-90.66
1563.71,-210.0
1563.715,-210.0
1563.72,-210.0
1563.725,-210.0
1563.73,-210.0
1563.735,-210.0
1563.74,-89.87
1563.745,-210.0
1563.75,-210.0
1563.755,-87.65
1563.76,-86.19
1563.765,-88.11
1563.77,-83.03
1563.775,-82.88
1563.78,-81.42
1563.785,-84.64
1563.79,-210.0
1563.795,-81.42
1563.8,-82.6
1563.805,-88.62
1563.81,-82.34
1563.815,-87.65
1563.82,-87.24
1563.825,-87.65
1563.83,-94.64
1563.835,-92.88
1563.84,-210.0
1563.845,-210.0
1563.85,-210.0
1563.855,-210.0
1563.86,-210.0
1563.865,-94.64
1563.87,-89.87
1563.875,-94.64
1563.88,-210.0
1563.885,-210.0
1563.89,-210.0
1563.895,-210.0
1563.9,-210.0
1563.905,-87.65
1563.91,-210.0
1563.915,-210.0
1563.92,-210.0
1563.925,-210.0
1563.93,-87.65
1563.935,-86.19
1563.94,-210.0
1563.945,-210.0
1563.95,-210.0
1563.955,-210.0
1563.96,-94.64
1563.965,-210.0
1563.97,-89.87
1563.975,-91.63
1563.98,-210.0
1563.985,-91.63
1563.99,-88.11
1563.995,-210.0
1564.0,-210.0
1564.005,-210.0
1564.01,-210.0
1564.015,-87.24
1564.02,-81.74
1564.025,-210.0
1564.03,-210.0
1564.035,-83.85
1564.04,-210.0
1564.045,-210.0
1564.05,-94.64
1564.055,-91.63
1564.06,-210.0
1564.065,-86.86
1564.07,-86.19
1564.075,-94.64
1564.08,-210.0
1564.085,-210.0
1564.09,-210.0
1564.095,-210.0
1564.1,-91.63
1564.105,-210.0
1564.11,-90.66
1564.115,-210.0
1564.12,-210.0
1564.125,-89.2
1564.13,-210.0
1564.135,-210.0
1564.14,-210.0
1564.145,-94.64
1564.15,-84.43
1564.155,-210.0
1564.16,-97.65
1564.165,-82.34
1564.17,-88.11
1564.175,-210.0
1564.18,-83.85
1564.185,-210.0
1564.19,-210.0
1564.195,-92.88
1564.2,-210.0
1564.205,-210.0
1564.21,-210.0
1564.215,-88.62
1564.22,-87.24
1564.225,-87.65
1564.23,-89.87
1564.235,-210.0
1564.24,-210.0
1564.245,-89.2
1564.25,-87.24
1564.255,-210.0
1564.26,-92.88
1564.265,-84.87
1564.27,-210.0
1564.275,-210.0
1564.28,-210.0
1564.285,-210.0
1564.29,-210.0
1564.295,-92.88
1564.3,-91.63
1564.305,-210.0
1564.31,-83.18
1564.315,-83.85
1564.32,-210.0
1564.325,-86.52
1564.33,-82.47
1564.335,-87.65
1564.34,-210.0
1564.345,-86.86
1564.35,-83.85
1564.355,-86.52
1564.36,-210.0
1564.365,-210.0
1564.37,-210.0
1564.375,-210.0
1564.38,-86.86
1564.385,-83.18
1564.39,-210.0
1564.395,-210.0
1564.4,-92.88
1564.405,-89.87
1564.41,-210.0
1564.415,-210.0
1564.42,-85.61
1564.425,-81.97
1564.43,-86.52
1564.435,-210.0
1564.44,-91.63
1564.445,-84.64
1564.45,-84.43
1564.455,-87.24
1564.46,-91.63
1564.465,-84.64
1564.47,-210.0
1564.475,-210.0
1564.48,-89.87
1564.485,-92.88
1564.49,-210.0
1564.495,-84.23
1564.5,-83.5
1564.505,-88.62
1564.51,-84.43
1564.515,-90.66
1564.52,-210.0
1564.525,-210.0
1564.53,-210.0
1564.535,-85.89
1564.54,-86.19
1564.545,-83.03
1564.55,-83.18
1564.555,-85.1
1564.56,-81.63
1564.565,-86.86
1564.57,-210.0
1564.575,-88.62
1564.58,-210.0
1564.585,-210.0
1564.59,-90.66
1564.595,-88.62
1564.6,-210.0
1564.605,-210.0
1564.61,-210.0
1564.615,-210.0
1564.62,-86.86
1564.625,-81.97
1564.63,-88.11
1564.635,-86.52
1564.64,-85.89
1564.645,-86.86
1564.65,-210.0
1564.655,-210.0
1564.66,-87.65
1564.665,-210.0
1564.67,-210.0
1564.675,-210.0
1564.68,-210.0
1564.685,-87.65
1564.69,-210.0
1564.695,-210.0
1564.7,-210.0
1564.705,-210.0
1564.71,-87.65
1564.715,-210.0
1564.72,-210.0
1564.725,-210.0
1564.73,-88.62
1564.735,-86.86
1564.74,-83.18
1564.745,-82.74
1564.75,-88.11
1564.755,-83.85
1564.76,-91.63
1564.765,-85.1
1564.77,-82.21
1564.775,-84.43
1564.78,-85.61
1564.785,-85.89
1564.79,-210.0
1564.795,-210.0
1564.8,-88.62
1564.805,-80.66
1564.81,-81.86
1564.815,-210.0
1564.82,-210.0
1564.825,-210.0
1564.83,-92.88
1564.835,-210.0
1564.84,-88.62
1564.845,-92.88
1564.85,-210.0
1564.855,-210.0
1564.86,-210.0
1564.865,-97.65
1564.87,-210.0
1564.875,-89.87
1564.88,-85.61
1564.885,-86.86
1564.89,-210.0
1564.895,-91.63
1564.9,-81.74
1564.905,-94.64
1564.91,-210.0
1564.915,-89.2
1564.92,-89.87
1564.925,-210.0
1564.93,-210.0
1564.935,-210.0
1564.94,-89.87
1564.945,-85.1
1564.95,-210.0
1564.955,-89.87
1564.96,-86.86
1564.965,-86.86
1564.97,-92.88
1564.975,-89.2
1564.98,-89.2
1564.985,-88.62
1564.99,-210.0
1564.995,-210.0
1565.0,-88.62
1565.005,-210.0
1565.01,-210.0
1565.015,-82.34
1565.02,-83.34
1565.025,-84.87
1565.03,-88.62
1565.035,-88.11
1565.04,-210.0
1565.045,-210.0
1565.05,-86.86
1565.055,-210.0
1565.06,-210.0
1565.065,-210.0
1565.07,-87.65
1565.075,-85.61
1565.08,-210.0
1565.085,-210.0
1565.09,-210.0
1565.095,-91.63
1565.1,-94.64
1565.105,-84.43
1565.11,-88.11
1565.115,-210.0
1565.12,-210.0
1565.125,-83.85
1565.13,-81.42
1565.135,-87.65
1565.14,-86.86
1565.145,-210.0
1565.15,-210.0
1565.155,-210.0
1565.16,-86.86
1565.165,-94.64
1565.17,-210.0
1565.175,-210.0
1565.18,-210.0
1565.185,-210.0
1565.19,-88.11
1565.195,-210.0
1565.2,-210.0
1565.205,-94.64
1565.21,-210.0
1565.215,-210.0
1565.22,-210.0
1565.225,-85.61
1565.23,-81.97
1565.235,-86.86
1565.24,-210.0
1565.245,-210.0
1565.25,-210.0
1565.255,-210.0
1565.26,-84.64
1565.265,-90.66
1565.27,-210.0
1565.275,-210.0
1565.28,-84.43
1565.285,-210.0
1565.29,-210.0
1565.295,-210.0
1565.3,-210.0
1565.305,-210.0
1565.31,-210.0
1565.315,-97.65
1565.32,-86.19
1565.325,-210.0
1565.33,-84.43
1565.335,-83.85
1565.34,-85.1
1565.345,-210.0
1565.35,-210.0
1565.355,-97.65
1565.36,-87.65
1565.365,-210.0
1565.37,-210.0
1565.375,-210.0
1565.38,-210.0
1565.385,-94.64
1565.39,-210.0
1565.395,-210.0
1565.4,-210.0
1565.405,-210.0
1565.41,-210.0
1565.415,-210.0
1565.42,-210.0
1565.425,-86.86
1565.43,-83.19
1565.435,-210.0
1565.44,-210.0
1565.445,-210.0
1565.45,-210.0
1565.455,-210.0
1565.46,-88.63
1565.465,-85.62
1565.47,-210.0
1565.475,-210.0
1565.48,-210.0
1565.485,-86.87
1565.49,-84.65
1565.495,-82.48
1565.5,-210.0
1565.505,-210.0
1565.51,-210.0
1565.515,-210.0
1565.52,-210.0
1565.525,-210.0
1565.53,-90.67
1565.535,-88.63
1565.54,-89.88
1565.545,-86.53
1565.55,-92.89
1565.555,-210.0
1565.56,-210.0
1565.565,-210.0
1565.57,-210.0
1565.575,-210.0
1565.58,-210.0
1565.585,-90.67
1565.59,-210.0
1565.595,-210.0
1565.6,-97.66
1565.605,-85.36
1565.61,-86.87
1565.615,-87.25
1565.62,-83.19
1565.625,-85.36
1565.63,-82.75
1565.635,-82.89
1565.64,-210.0
1565.645,-90.67
1565.65,-210.0
1565.655,-210.0
1565.66,-86.87
1565.665,-82.75
1565.67,-88.12
1565.675,-84.65
1565.68,-210.0
1565.685,-210.0
1565.69,-210.0
1565.695,-210.0
1565.7,-210.0
1565.705,-89.88
1565.71,-94.65
1565.715,-210.0
1565.72,-210.0
1565.725,-89.88
1565.73,-85.36
1565.735,-88.63
1565.74,-83.19
1565.745,-81.54
1565.75,-86.2
1565.755,-210.0
1565.76,-210.0
1565.765,-210.0
1565.77,-87.66
1565.775,-80.18
1565.78,-83.86
1565.785,-210.0
1565.79,-97.66
1565.795,-86.2
1565.8,-86.2
1565.805,-94.65
1565.81,-83.86
1565.815,-86.2
1565.82,-86.2
1565.825,-90.67
1565.83,-210.0
1565.835,-210.0
1565.84,-86.87
1565.845,-82.1
1565.85,-85.62
1565.855,-81.04
1565.86,-82.75
1565.865,-86.2
1565.87,-88.63
1565.875,-210.0
1565.88,-210.0
1565.885,-94.65
1565.89,-90.67
1565.895,-210.0
1565.9,-210.0
1565.905,-86.53
1565.91,-86.2
1565.915,-81.98
1565.92,-86.53
1565.925,-210.0
1565.93,-210.0
1565.935,-89.88
1565.94,-210.0
1565.945,-210.0
1565.95,-210.0
1565.955,-210.0
1565.96,-210.0
1565.965,-210.0
1565.97,-210.0
1565.975,-85.36
1565.98,-210.0
1565.985,-85.36
1565.99,-83.86
1565.995,-86.2
1566.0,-210.0
1566.005,-83.51
1566.01,-210.0
1566.015,-210.0
1566.02,-90.67
1566.025,-86.2
1566.03,-87.66
1566.035,-82.1
1566.04,-81.98
1566.045,-210.0
1566.05,-97.66
1566.055,-90.67
1566.06,-210.0
1566.065,-210.0
1566.07,-85.62
1566.075,-83.86
1566.08,-210.0
1566.085,-210.0
1566.09,-210.0
1566.095,-210.0
1566.1,-210.0
1566.105,-88.12
1566.11,-85.11
1566.115,-82.61
1566.12,-210.0
1566.125,-210.0
1566.13,-83.86
1566.135,-210.0
1566.14,-210.0
1566.145,-210.0
1566.15,-82.89
1566.155,-83.51
1566.16,-82.1
1566.165,-80.94
1566.17,-88.12
1566.175,-210.0
1566.18,-210.0
1566.185,-91.64
1566.19,-82.75
1566.195,-88.12
1566.2,-210.0
1566.205,-97.66
1566.21,-90.67
1566.215,-210.0
1566.22,-210.0
1566.225,-84.05
1566.23,-81.23
1566.235,-82.48
1566.24,-210.0
1566.245,-210.0
1566.25,-87.66
1566.255,-86.87
1566.26,-83.19
1566.265,-81.98
1566.27,-84.24
1566.275,-86.2
1566.28,-86.53
1566.285,-89.21
1566.29,-97.66
1566.295,-87.66
1566.3,-82.35
1566.305,-84.44
1566.31,-210.0
1566.315,-210.0
1566.32,-89.88
1566.325,-92.89
1566.33,-210.0
1566.335,-210.0
1566.34,-88.63
1566.345,-210.0
1566.35,-210.0
1566.355,-88.63
1566.36,-80.85
1566.365,-81.04
1566.37,-81.64
1566.375,-80.85
1566.38,-83.69
1566.385,-83.86
1566.39,-81.23
1566.395,-83.51
1566.4,-84.44
1566.405,-210.0
1566.41,-210.0
1566.415,-210.0
1566.42,-210.0
1566.425,-210.0
1566.43,-97.66
1566.435,-83.51
1566.44,-210.0
1566.445,-94.65
1566.45,-210.0
1566.455,-81.54
1566.46,-80.5
1566.465,-82.1
1566.47,-85.36
1566.475,-90.67
1566.48,-94.65
1566.485,-89.88
1566.49,-87.66
1566.495,-210.0
1566.5,-88.63
1566.505,-210.0
1566.51,-84.44
1566.515,-84.88
1566.52,-85.11
1566.525,-89.88
1566.53,-210.0
1566.535,-210.0
1566.54,-210.0
1566.545,-210.0
1566.55,-210.0
1566.555,-210.0
1566.56,-92.89
1566.565,-88.12
1566.57,-210.0
1566.575,-210.0
1566.58,-210.0
1566.585,-210.0
1566.59,-90.67
1566.595,-85.11
1566.6,-90.67
1566.605,-210.0
1566.61,-86.53
1566.615,-87.25
1566.62,-210.0
1566.625,-210.0
1566.63,-88.12
1566.635,-210.0
1566.64,-210.0
1566.645,-210.0
1566.65,-84.44
1566.655,-83.51
1566.66,-210.0
1566.665,-210.0
1566.67,-210.0
1566.675,-210.0
1566.68,-210.0
1566.685,-210.0
1566.69,-210.0
1566.695,-210.0
1566.7,-210.0
1566.705,-89.88
1566.71,-86.87
1566.715,-83.69
1566.72,-83.51
1566.725,-210.0
1566.73,-210.0
1566.735,-210.0
1566.74,-210.0
1566.745,-210.0
1566.75,-94.65
1566.755,-210.0
1566.76,-210.0
1566.765,-84.65
1566.77,-87.25
1566.775,-210.0
1566.78,-91.64
1566.785,-82.61
1566.79,-84.05
1566.795,-86.2
1566.8,-91.64
1566.805,-210.0
1566.81,-210.0
1566.815,-210.0
1566.82,-82.89
1566.825,-210.0
1566.83,-210.0
1566.835,-210.0
1566.84,-210.0
1566.845,-210.0
1566.85,-210.0
1566.855,-210.0
1566.86,-210.0
1566.865,-210.0
1566.87,-210.0
1566.875,-210.0
1566.88,-210.0
1566.885,-210.0
1566.89,-210.0
1566.895,-210.0
1566.9,-210.0
1566.905,-94.65
1566.91,-90.67
1566.915,-210.0
1566.92,-210.0
1566.925,-210.0
1566.93,-210.0
1566.935,-84.87
1566.94,-84.43
1566.945,-82.34
1566.95,-79.87
1566.955,-81.42
1566.96,-82.88
1566.965,-210.0
1566.97,-210.0
1566.975,-210.0
1566.98,-86.52
1566.985,-84.64
1566.99,-85.89
1566.995,-83.5
1567.0,-82.6
1567.005,-81.42
1567.01,-81.42
1567.015,-86.19
1567.02,-210.0
1567.025,-210.0
1567.03,-210.0
1567.035,-92.88
1567.04,-84.43
1567.045,-94.64
1567.05,-210.0
1567.055,-210.0
1567.06,-210.0
1567.065,-210.0
1567.07,-83.34
1567.075,-83.18
1567.08,-85.1
1567.085,-210.0
1567.09,-210.0
1567.095,-210.0
1567.1,-210.0
1567.105,-210.0
1567.11,-210.0
1567.115,-210.0
1567.12,-84.64
1567.125,-94.64
1567.13,-210.0
1567.135,-210.0
1567.14,-210.0
1567.145,-90.66
1567.15,-94.64
1567.155,-88.62
1567.16,-94.64
1567.165,-86.86
1567.17,-82.6
1567.175,-210.0
1567.18,-210.0
1567.185,-210.0
1567.19,-210.0
1567.195,-210.0
1567.2,-210.0
1567.205,-210.0
1567.21,-210.0
1567.215,-210.0
1567.22,-85.1
1567.225,-82.34
1567.23,-81.22
1567.235,-82.47
1567.24,-89.2
1567.245,-210.0
1567.25,-210.0
1567.255,-210.0
1567.26,-210.0
1567.265,-210.0
1567.27,-89.87
1567.275,-85.61
1567.28,-85.89
1567.285,-88.11
1567.29,-88.11
1567.295,-83.5
1567.3,-97.65
1567.305,-210.0
1567.31,-210.0
1567.315,-87.24
1567.32,-86.86
1567.325,-210.0
1567.33,-210.0
1567.335,-210.0
1567.34,-210.0
1567.345,-87.65
1567.35,-89.2
1567.355,-92.88
1567.36,-85.1
1567.365,-89.87
1567.37,-210.0
1567.375,-91.63
1567.38,-83.85
1567.385,-210.0
1567.39,-90.66
1567.395,-210.0
1567.4,-210.0
1567.405,-210.0
1567.41,-210.0
1567.415,-210.0
1567.42,-210.0
1567.425,-87.24
1567.43,-210.0
1567.435,-88.1
1567.44,-87.64
1567.445,-87.23
1567.45,-97.64
1567.455,-210.0
1567.46,-88.61
1567.465,-90.65
1567.47,-210.0
1567.475,-210.0
1567.48,-210.0
1567.485,-85.88
1567.49,-85.09
1567.495,-210.0
1567.5,-210.0
1567.505,-210.0
1567.51,-210.0
1567.515,-210.0
1567.52,-88.1
1567.525,-91.62
1567.53,-210.0
1567.535,-210.0
1567.54,-82.33
1567.545,-84.42
1567.55,-84.63
1567.555,-87.64
1567.56,-210.0
1567.565,-210.0
1567.57,-210.0
1567.575,-210.0
1567.58,-210.0
1567.585,-210.0
1567.59,-210.0
1567.595,-210.0
1567.6,-83.84
1567.605,-83.49
1567.61,-85.88
1567.615,-83.33
1567.62,-94.63
1567.625,-210.0
1567.63,-210.0
1567.635,-85.09
1567.64,-94.63
1567.645,-210.0
1567.65,-210.0
1567.655,-85.6
1567.66,-210.0
1567.665,-91.62
1567.67,-210.0
1567.675,-91.62
1567.68,-85.34
1567.685,-94.63
1567.69,-210.0
1567.695,-210.0
1567.7,-210.0
1567.705,-88.1
1567.71,-91.62
1567.715,-86.51
1567.72,-87.64
1567.725,-86.51
1567.73,-83.67
1567.735,-210.0
1567.74,-210.0
1567.745,-210.0
1567.75,-88.1
1567.755,-85.09
1567.76,-86.18
1567.765,-210.0
1567.77,-210.0
1567.775,-210.0
1567.78,-210.0
1567.785,-90.65
1567.79,-210.0
1567.795,-210.0
1567.8,-210.0
1567.805,-83.84
1567.81,-83.02
1567.815,-210.0
1567.82,-210.0
1567.825,-210.0
1567.83,-85.34
1567.835,-84.86
1567.84,-86.51
1567.845,-82.08
1567.85,-210.0
1567.855,-210.0
1567.86,-210.0
1567.865,-210.0
1567.87,-88.1
1567.875,-84.86
1567.88,-83.33
1567.885,-89.86
1567.89,-92.87
1567.895,-210.0
1567.9,-210.0
1567.905,-210.0
1567.91,-210.0
1567.915,-210.0
1567.92,-210.0
1567.925,-210.0
1567.93,-210.0
1567.935,-89.86
1567.94,-86.85
1567.945,-210.0
1567.95,-210.0
1567.955,-86.85
1567.96,-210.0
1567.965,-85.34
1567.97,-210.0
1567.975,-210.0
1567.98,-210.0
1567.985,-210.0
1567.99,-94.63
1567.995,-210.0
1568.0,-210.0
1568.005,-210.0
1568.01,-210.0
1568.015,-210.0
1568.02,-210.0
1568.025,-210.0
1568.03,-210.0
1568.035,-210.0
1568.04,-86.85
1568.045,-85.09
1568.05,-97.64
1568.055,-210.0
1568.06,-210.0
1568.065,-88.61
1568.07,-82.73
1568.075,-86.18
1568.08,-210.0
1568.085,-210.0
1568.09,-210.0
1568.095,-86.85
1568.1,-90.65
1568.105,-89.86
1568.11,-94.63
1568.115,-90.65
1568.12,-210.0
1568.125,-210.0
1568.13,-210.0
1568.135,-210.0
1568.14,-210.0
1568.145,-210.0
1568.15,-94.63
1568.155,-210.0
1568.16,-82.46
1568.165,-81.62
1568.17,-82.33
1568.175,-85.34
1568.18,-210.0
1568.185,-210.0
1568.19,-210.0
1568.195,-210.0
1568.2,-210.0
1568.205,-210.0
1568.21,-81.85
1568.215,-84.86
1568.22,-86.51
1568.225,-210.0
1568.23,-210.0
1568.235,-210.0
1568.24,-210.0
1568.245,-210.0
1568.25,-210.0
1568.255,-210.0
1568.26,-210.0
1568.265,-82.59
1568.27,-84.22
1568.275,-210.0
1568.28,-92.87
1568.285,-87.64
1568.29,-210.0
1568.295,-210.0
1568.3,-85.09
1568.305,-88.61
1568.31,-91.62
1568.315,-83.67
1568.32,-86.51
1568.325,-210.0
1568.33,-210.0
1568.335,-90.65
1568.34,-210.0
1568.345,-210.0
1568.35,-210.0
1568.355,-210.0
1568.36,-210.0
1568.365,-210.0
1568.37,-85.6
1568.375,-86.18
1568.38,-90.65
1568.385,-84.42
1568.39,-87.64
1568.395,-210.0
1568.4,-210.0
1568.405,-210.0
1568.41,-85.09
1568.415,-84.86
1568.42,-210.0
1568.425,-210.0
1568.43,-210.0
1568.435,-85.61
1568.44,-87.65
1568.445,-210.0
1568.45,-210.0
1568.455,-210.0
1568.46,-210.0
1568.465,-210.0
1568.47,-210.0
1568.475,-83.03
1568.48,-83.85
1568.485,-210.0
1568.49,-210.0
1568.495,-210.0
1568.5,-83.68
1568.505,-210.0
1568.51,-210.0
1568.515,-210.0
1568.52,-210.0
1568.525,-210.0
1568.53,-86.52
1568.535,-85.61
1568.54,-83.18
1568.545,-94.64
1568.55,-210.0
1568.555,-210.0
1568.56,-210.0
1568.565,-210.0
1568.57,-210.0
1568.575,-210.0
1568.58,-210.0
1568.585,-210.0
1568.59,-91.63
1568.595,-210.0
1568.6,-210.0
1568.605,-92.88
1568.61,-210.0
1568.615,-210.0
1568.62,-210.0
1568.625,-210.0
1568.63,-210.0
1568.635,-210.0
1568.64,-89.87
1568.645,-82.6
1568.65,-80.02
1568.655,-82.21
1568.66,-210.0
1568.665,-97.65
1568.67,-210.0
1568.675,-92.88
1568.68,-90.66
1568.685,-81.42
1568.69,-89.87
1568.695,-210.0
1568.7,-84.23
1568.705,-81.12
1568.71,-84.04
1568.715,-82.74
1568.72,-81.74
1568.725,-86.52
1568.73,-85.1
1568.735,-85.61
1568.74,-210.0
1568.745,-210.0
1568.75,-210.0
1568.755,-88.62
1568.76,-86.19
1568.765,-210.0
1568.77,-210.0
1568.775,-90.66
1568.78,-210.0
1568.785,-92.88
1568.79,-90.66
1568.795,-89.2
1568.8,-210.0
1568.805,-91.63
1568.81,-210.0
1568.815,-81.97
1568.82,-82.34
1568.825,-210.0
1568.83,-210.0
1568.835,-83.68
1568.84,-86.86
1568.845,-210.0
1568.85,-91.63
1568.855,-210.0
1568.86,-210.0
1568.865,-210.0
1568.87,-210.0
1568.875,-210.0
1568.88,-210.0
1568.885,-210.0
1568.89,-210.0
1568.895,-83.85
1568.9,-210.0
1568.905,-210.0
1568.91,-88.62
1568.915,-89.87
1568.92,-210.0
1568.925,-82.88
1568.93,-88.11
1568.935,-91.63
1568.94,-210.0
1568.945,-210.0
1568.95,-210.0
1568.955,-210.0
1568.96,-210.0
1568.965,-210.0
1568.97,-210.0
1568.975,-210.0
1568.98,-210.0
1568.985,-210.0
1568.99,-210.0
1568.995,-210.0
1569.0,-94.64
1569.005,-88.11
1569.01,-210.0
1569.015,-210.0
1569.02,-210.0
1569.025,-86.19
1569.03,-83.18
1569.035,-86.52
1569.04,-210.0
1569.045,-210.0
1569.05,-210.0
1569.055,-210.0
1569.06,-210.0
1569.065,-82.47
1569.07,-85.89
1569.075,-210.0
1569.08,-210.0
1569.085,-210.0
1569.09,-85.61
1569.095,-81.74
1569.1,-82.88
1569.105,-86.52
1569.11,-210.0
1569.115,-210.0
1569.12,-210.0
1569.125,-210.0
1569.13,-83.18
1569.135,-81.22
1569.14,-81.22
1569.145,-81.22
1569.15,-83.03
1569.155,-87.65
1569.16,-210.0
1569.165,-210.0
1569.17,-210.0
1569.175,-210.0
1569.18,-210.0
1569.185,-210.0
1569.19,-89.87
1569.195,-88.62
1569.2,-210.0
1569.205,-210.0
1569.21,-87.65
1569.215,-92.88
1569.22,-84.23
1569.225,-82.88
1569.23,-88.62
1569.235,-210.0
1569.24,-210.0
1569.245,-87.65
1569.25,-89.87
1569.255,-85.1
1569.26,-84.87
1569.265,-210.0
1569.27,-91.63
1569.275,-83.85
1569.28,-81.86
1569.285,-92.88
1569.29,-90.66
1569.295,-83.18
1569.3,-83.34
1569.305,-88.62
1569.31,-210.0
1569.315,-89.87
1569.32,-86.19
1569.325,-83.03
1569.33,-210.0
1569.335,-210.0
1569.34,-210.0
1569.345,-84.87
1569.35,-210.0
1569.355,-210.0
1569.36,-92.88
1569.365,-88.62
1569.37,-210.0
1569.375,-210.0
1569.38,-210.0
1569.385,-210.0
1569.39,-210.0
1569.395,-210.0
1569.4,-210.0
1569.405,-210.0
1569.41,-210.0
1569.415,-86.86
1569.42,-210.0
1569.425,-210.0
1569.43,-210.0
1569.435,-87.64
1569.44,-210.0
1569.445,-210.0
1569.45,-210.0
1569.455,-210.0
1569.46,-210.0
1569.465,-210.0
1569.47,-87.64
1569.475,-83.49
1569.48,-83.17
1569.485,-84.22
1569.49,-91.62
1569.495,-82.33
1569.5,-82.08
1569.505,-210.0
1569.51,-83.84
1569.515,-81.41
1569.52,-89.86
1569.525,-86.85
1569.53,-88.61
1569.535,-210.0
1569.54,-210.0
1569.545,-210.0
1569.55,-94.63
1569.555,-210.0
1569.56,-85.88
1569.565,-88.61
1569.57,-86.18
1569.575,-210.0
1569.58,-210.0
1569.585,-87.64
1569.59,-210.0
1569.595,-81.85
1569.6,-80.92
1569.605,-90.65
1569.61,-94.63
1569.615,-210.0
1569.62,-84.42
1569.625,-82.08
1569.63,-87.64
1569.635,-210.0
1569.64,-210.0
1569.645,-89.86
1569.65,-85.88
1569.655,-86.51
1569.66,-84.63
1569.665,-85.34
1569.67,-210.0
1569.675,-82.59
1569.68,-82.46
1569.685,-83.49
1569.69,-88.61
1569.695,-210.0
1569.7,-210.0
1569.705,-210.0
1569.71,-83.84
1569.715,-86.18
1569.72,-83.02
1569.725,-87.64
1569.73,-210.0
1569.735,-94.63
1569.74,-94.63
1569.745,-210.0
1569.75,-210.0
1569.755,-87.23
1569.76,-86.51
1569.765,-210.0
1569.77,-210.0
1569.775,-210.0
1569.78,-210.0
1569.785,-210.0
1569.79,-210.0
1569.795,-210.0
1569.8,-210.0
1569.805,-210.0
1569.81,-210.0
1569.815,-210.0
1569.82,-210.0
1569.825,-210.0
1569.83,-210.0
1569.835,-210.0
1569.84,-210.0
1569.845,-210.0
1569.85,-210.0
1569.855,-210.0
1569.86,-210.0
1569.865,-210.0
1569.87,-85.6
1569.875,-85.34
1569.88,-92.87
1569.885,-210.0
1569.89,-92.87
1569.895,-210.0
1569.9,-84.42
1569.905,-86.51
1569.91,-94.63
1569.915,-210.0
1569.92,-210.0
1569.925,-210.0
1569.93,-210.0
1569.935,-94.63
1569.94,-86.18
1569.945,-86.18
1569.95,-210.0
1569.955,-210.0
1569.96,-210.0
1569.965,-86.18
1569.97,-210.0
1569.975,-210.0
1569.98,-81.96
1569.985,-87.23
1569.99,-210.0
1569.995,-210.0
1570.0,-89.86
1570.005,-90.65
1570.01,-81.41
1570.015,-210.0
1570.02,-210.0
1570.025,-94.63
1570.03,-81.73
1570.035,-85.88
1570.04,-210.0
1570.045,-210.0
1570.05,-210.0
1570.055,-210.0
1570.06,-210.0
1570.065,-84.22
1570.07,-85.6
1570.075,-210.0
1570.08,-210.0
1570.085,-210.0
1570.09,-210.0
1570.095,-210.0
1570.1,-85.6
1570.105,-82.59
1570.11,-89.86
1570.115,-210.0
1570.12,-210.0
1570.125,-97.64
1570.13,-210.0
1570.135,-210.0
1570.14,-210.0
1570.145,-210.0
1570.15,-89.86
1570.155,-90.65
1570.16,-84.42
1570.165,-97.64
1570.17,-210.0
1570.175,-83.17
1570.18,-86.85
1570.185,-210.0
1570.19,-210.0
1570.195,-210.0
1570.2,-90.65
1570.205,-84.86
1570.21,-210.0
1570.215,-210.0
1570.22,-88.61
1570.225,-83.84
1570.23,-210.0
1570.235,-86.18
1570.24,-210.0
1570.245,-210.0
1570.25,-86.18
1570.255,-82.73
1570.26,-85.88
1570.265,-210.0
1570.27,-210.0
1570.275,-85.09
1570.28,-210.0
1570.285,-210.0
1570.29,-92.87
1570.295,-86.51
1570.3,-82.59
1570.305,-81.11
1570.31,-84.22
1570.315,-89.86
1570.32,-92.87
1570.325,-94.63
1570.33,-89.19
1570.335,-83.17
1570.34,-86.85
1570.345,-84.22
1570.35,-84.22
1570.355,-84.86
1570.36,-81.62
1570.365,-86.18
1570.37,-83.84
1570.375,-86.51
1570.38,-210.0
1570.385,-210.0
1570.39,-210.0
1570.395,-90.65
1570.4,-210.0
1570.405,-89.19
1570.41,-210.0
1570.415,-82.59
1570.42,-82.59
1570.425,-89.86
1570.43,-210.0
1570.435,-210.0
1570.44,-210.0
1570.445,-210.0
1570.45,-210.0
1570.455,-210.0
1570.46,-84.62
1570.465,-210.0
1570.47,-210.0
1570.475,-210.0
1570.48,-210.0
1570.485,-210.0
1570.49,-210.0
1570.495,-210.0
1570.5,-210.0
1570.505,-94.62
1570.51,-88.09
1570.515,-82.86
1570.52,-83.48
1570.525,-86.84
1570.53,-210.0
1570.535,-89.85
1570.54,-84.41
1570.545,-84.85
1570.55,-86.5
1570.555,-210.0
1570.56,-210.0
1570.565,-210.0
1570.57,-210.0
1570.575,-210.0
1570.58,-210.0
1570.585,-210.0
1570.59,-84.62
1570.595,-84.62
1570.6,-83.48
1570.605,-84.62
1570.61,-82.58
1570.615,-80.47
1570.62,-83.83
1570.625,-86.17
1570.63,-80.08
1570.635,-81.51
1570.64,-89.85
1570.645,-91.61
1570.65,-210.0
1570.655,-210.0
1570.66,-210.0
1570.665,-88.6
1570.67,-210.0
1570.675,-88.09
1570.68,-82.19
1570.685,-89.18
1570.69,-210.0
1570.695,-210.0
1570.7,-85.59
1570.705,-82.19
1570.71,-92.86
1570.715,-210.0
1570.72,-210.0
1570.725,-86.5
1570.73,-86.17
1570.735,-210.0
1570.74,-210.0
1570.745,-87.63
1570.75,-210.0
1570.755,-210.0
1570.76,-86.17
1570.765,-210.0
1570.77,-86.84
1570.775,-80.82
1570.78,-80.15
1570.785,-83.32
1570.79,-210.0
1570.795,-210.0
1570.8,-210.0
1570.805,-210.0
1570.81,-94.62
1570.815,-210.0
1570.82,-210.0
1570.825,-85.59
1570.83,-90.64
1570.835,-82.86
1570.84,-94.62
1570.845,-210.0
1570.85,-210.0
1570.855,-90.64
1570.86,-210.0
1570.865,-83.48
1570.87,-81.95
1570.875,-94.62
1570.88,-210.0
1570.885,-210.0
1570.89,-210.0
1570.895,-210.0
1570.9,-94.62
1570.905,-94.62
1570.91,-210.0
1570.915,-94.62
1570.92,-210.0
1570.925,-210.0
1570.93,-210.0
1570.935,-90.64
1570.94,-210.0
1570.945,-210.0
1570.95,-92.86
1570.955,-83.83
1570.96,-210.0
1570.965,-210.0
1570.97,-210.0
1570.975,-210.0
1570.98,-91.61
1570.985,-82.32
1570.99,-85.59
1570.995,-83.66
1571.0,-81.84
1571.005,-82.32
1571.01,-83.83
1571.015,-86.5
1571.02,-210.0
1571.025,-210.0
1571.03,-86.17
1571.035,-83.01
1571.04,-94.62
1571.045,-210.0
1571.05,-89.85
1571.055,-210.0
1571.06,-210.0
1571.065,-210.0
1571.07,-88.09
1571.075,-86.5
1571.08,-210.0
1571.085,-210.0
1571.09,-88.09
1571.095,-83.66
1571.1,-210.0
1571.105,-84.62
1571.11,-81.84
1571.115,-88.6
1571.12,-210.0
1571.125,-210.0
1571.13,-87.22
1571.135,-210.0
1571.14,-90.64
1571.145,-210.0
1571.15,-210.0
1571.155,-210.0
1571.16,-87.63
1571.165,-82.58
1571.17,-88.09
1571.175,-210.0
1571.18,-210.0
1571.185,-210.0
1571.19,-210.0
1571.195,-210.0
1571.2,-210.0
1571.205,-210.0
1571.21,-210.0
1571.215,-210.0
1571.22,-84.41
1571.225,-94.62
1571.23,-210.0
1571.235,-210.0
1571.24,-210.0
1571.245,-97.63
1571.25,-84.21
1571.255,-81.72
1571.26,-82.58
1571.265,-210.0
1571.27,-210.0
1571.275,-210.0
1571.28,-210.0
1571.285,-210.0
1571.29,-210.0
1571.295,-87.22
1571.3,-87.63
1571.305,-88.6
1571.31,-85.59
1571.315,-82.32
1571.32,-84.85
1571.325,-94.62
1571.33,-210.0
1571.335,-210.0
1571.34,-210.0
1571.345,-88.6
1571.35,-90.64
1571.355,-210.0
1571.36,-85.59
1571.365,-210.0
1571.37,-210.0
1571.375,-210.0
1571.38,-210.0
1571.385,-210.0
1571.39,-210.0
1571.395,-84.21
1571.4,-84.41
1571.405,-89.18
1571.41,-83.16
1571.415,-84.02
1571.42,-210.0
1571.425,-90.64
1571.43,-210.0
1571.435,-83.67
1571.44,-85.34
1571.445,-83.84
1571.45,-210.0
1571.455,-210.0
1571.46,-210.0
1571.465,-210.0
1571.47,-210.0
1571.475,-210.0
1571.48,-210.0
1571.485,-88.1
1571.49,-83.33
1571.495,-86.51
1571.5,-92.87
1571.505,-92.87
1571.51,-88.61
1571.515,-89.86
1571.52,-86.51
1571.525,-97.64
1571.53,-210.0
1571.535,-210.0
1571.54,-210.0
1571.545,-210.0
1571.55,-210.0
1571.555,-210.0
1571.56,-210.0
1571.565,-210.0
1571.57,-210.0
1571.575,-210.0
1571.58,-84.42
1571.585,-80.65
1571.59,-81.73
1571.595,-87.64
1571.6,-210.0
1571.605,-210.0
1571.61,-210.0
1571.615,-210.0
1571.62,-210.0
1571.625,-210.0
1571.63,-83.67
1571.635,-87.23
1571.64,-210.0
1571.645,-210.0
1571.65,-210.0
1571.655,-210.0
1571.66,-210.0
1571.665,-92.87
1571.67,-210.0
1571.675,-210.0
1571.68,-210.0
1571.685,-210.0
1571.69,-87.64
1571.695,-210.0
1571.7,-210.0
1571.705,-89.19
1571.71,-85.09
1571.715,-86.51
1571.72,-88.1
1571.725,-85.88
1571.73,-210.0
1571.735,-210.0
1571.74,-210.0
1571.745,-210.0
1571.75,-210.0
1571.755,-91.62
1571.76,-210.0
1571.765,-210.0
1571.77,-94.63
1571.775,-83.49
1571.78,-83.84
1571.785,-85.09
1571.79,-210.0
1571.795,-210.0
1571.8,-210.0
1571.805,-210.0
1571.81,-210.0
1571.815,-86.85
1571.82,-85.6
1571.825,-210.0
1571.83,-210.0
1571.835,-82.59
1571.84,-85.09
1571.845,-210.0
1571.85,-210.0
1571.855,-94.63
1571.86,-210.0
1571.865,-210.0
1571.87,-210.0
1571.875,-210.0
1571.88,-88.61
1571.885,-87.64
1571.89,-82.87
1571.895,-87.64
1571.9,-83.67
1571.905,-83.49
1571.91,-82.46
1571.915,-84.03
1571.92,-86.18
1571.925,-88.61
1571.93,-85.34
1571.935,-84.42
1571.94,-90.65
1571.945,-84.42
1571.95,-84.63
1571.955,-86.18
1571.96,-210.0
1571.965,-92.87
1571.97,-97.64
1571.975,-210.0
1571.98,-210.0
1571.985,-82.33
1571.99,-82.46
1571.995,-86.51
1572.0,-210.0
1572.005,-210.0
1572.01,-210.0
1572.015,-85.6
1572.02,-82.46
1572.025,-90.65
1572.03,-85.6
1572.035,-89.19
1572.04,-83.02
1572.045,-88.61
1572.05,-210.0
1572.055,-210.0
1572.06,-88.1
1572.065,-210.0
1572.07,-210.0
1572.075,-210.0
1572.08,-210.0
1572.085,-210.0
1572.09,-87.64
1572.095,-210.0
1572.1,-82.87
1572.105,-86.51
1572.11,-94.63
1572.115,-210.0
1572.12,-87.64
1572.125,-85.6
1572.13,-210.0
1572.135,-210.0
1572.14,-210.0
1572.145,-210.0
1572.15,-88.1
1572.155,-81.41
1572.16,-83.17
1572.165,-97.64
1572.17,-210.0
1572.175,-210.0
1572.18,-86.85
1572.185,-82.33
1572.19,-85.88
1572.195,-81.62
1572.2,-82.87
1572.205,-210.0
1572.21,-210.0
1572.215,-85.6
1572.22,-97.64
1572.225,-210.0
1572.23,-210.0
1572.235,-210.0
1572.24,-210.0
1572.245,-210.0
1572.25,-87.64
1572.255,-84.42
1572.26,-81.02
1572.265,-84.42
1572.27,-88.1
1572.275,-210.0
1572.28,-210.0
1572.285,-210.0
1572.29,-210.0
1572.295,-84.86
1572.3,-79.58
1572.305,-80.74
1572.31,-210.0
1572.315,-210.0
1572.32,-210.0
1572.325,-210.0
1572.33,-84.63
1572.335,-89.86
1572.34,-210.0
1572.345,-89.19
1572.35,-210.0
1572.355,-210.0
1572.36,-85.6
1572.365,-84.42
1572.37,-85.09
1572.375,-87.64
1572.38,-92.87
1572.385,-89.86
1572.39,-210.0
1572.395,-210.0
1572.4,-210.0
1572.405,-89.86
1572.41,-94.63
1572.415,-210.0
1572.42,-210.0
1572.425,-210.0
1572.43,-210.0
1572.435,-210.0
1572.44,-210.0
1572.445,-94.64
1572.45,-210.0
1572.455,-210.0
1572.46,-210.0
1572.465,-210.0
1572.47,-210.0
1572.475,-210.0
1572.48,-210.0
1572.485,-210.0
1572.49,-86.19
1572.495,-89.87
1572.5,-88.62
1572.505,-210.0
1572.51,-210.0
1572.515,-210.0
1572.52,-87.65
1572.525,-210.0
1572.53,-88.62
1572.535,-86.19
1572.54,-210.0
1572.545,-210.0
1572.55,-210.0
1572.555,-210.0
1572.56,-83.85
1572.565,-82.34
1572.57,-88.62
1572.575,-85.61
1572.58,-82.21
1572.585,-85.1
1572.59,-86.19
1572.595,-82.6
1572.6,-82.6
1572.605,-85.61
1572.61,-82.6
1572.615,-86.19
1572.62,-210.0
1572.625,-88.62
1572.63,-88.11
1572.635,-83.18
1572.64,-85.1
1572.645,-88.11
1572.65,-85.35
1572.655,-210.0
1572.66,-210.0
1572.665,-210.0
1572.67,-210.0
1572.675,-85.61
1572.68,-210.0
1572.685,-210.0
1572.69,-210.0
1572.695,-210.0
1572.7,-210.0
1572.705,-210.0
1572.71,-97.65
1572.715,-89.87
1572.72,-210.0
1572.725,-210.0
1572.73,-210.0
1572.735,-90.66
1572.74,-83.5
1572.745,-83.34
1572.75,-88.62
1572.755,-84.87
1572.76,-210.0
1572.765,-210.0
1572.77,-210.0
1572.775,-210.0
1572.78,-210.0
1572.785,-210.0
1572.79,-210.0
1572.795,-210.0
1572.8,-210.0
1572.805,-210.0
1572.81,-210.0
1572.815,-210.0
1572.82,-210.0
1572.825,-210.0
1572.83,-210.0
1572.835,-210.0
1572.84,-88.11
1572.845,-86.19
1572.85,-87.24
1572.855,-210.0
1572.86,-210.0
1572.865,-210.0
1572.87,-210.0
1572.875,-210.0
1572.88,-87.65
1572.885,-210.0
1572.89,-210.0
1572.895,-210.0
1572.9,-210.0
1572.905,-210.0
1572.91,-210.0
1572.915,-210.0
1572.92,-210.0
1572.925,-210.0
1572.93,-210.0
1572.935,-97.65
1572.94,-83.34
1572.945,-210.0
1572.95,-210.0
1572.955,-210.0
1572.96,-210.0
1572.965,-210.0
1572.97,-210.0
1572.975,-210.0
1572.98,-210.0
1572.985,-210.0
1572.99,-210.0
1572.995,-210.0
1573.0,-210.0
1573.005,-85.1
1573.01,-85.89
1573.015,-91.63
1573.02,-91.63
1573.025,-85.1
1573.03,-94.64
1573.035,-210.0
1573.04,-94.64
1573.045,-84.43
1573.05,-210.0
1573.055,-210.0
1573.06,-210.0
1573.065,-94.64
1573.07,-210.0
1573.075,-88.62
1573.08,-81.42
1573.085,-83.85
1573.09,-85.1
1573.095,-87.65
1573.1,-210.0
1573.105,-210.0
1573.11,-210.0
1573.115,-210.0
1573.12,-210.0
1573.125,-84.87
1573.13,-86.52
1573.135,-86.19
1573.14,-82.34
1573.145,-83.34
1573.15,-81.97
1573.155,-85.61
1573.16,-210.0
1573.165,-210.0
1573.17,-94.64
1573.175,-91.63
1573.18,-87.65
1573.185,-84.64
1573.19,-86.19
1573.195,-210.0
1573.2,-210.0
1573.205,-210.0
1573.21,-210.0
1573.215,-210.0
1573.22,-85.1
1573.225,-90.66
1573.23,-91.63
1573.235,-210.0
1573.24,-210.0
1573.245,-210.0
1573.25,-86.86
1573.255,-210.0
1573.26,-87.65
1573.265,-86.86
1573.27,-85.61
1573.275,-85.89
1573.28,-82.6
1573.285,-83.5
1573.29,-210.0
1573.295,-210.0
1573.3,-89.2
1573.305,-85.89
1573.31,-91.63
1573.315,-83.85
1573.32,-91.63
1573.325,-210.0
1573.33,-210.0
1573.335,-210.0
1573.34,-210.0
1573.345,-210.0
1573.35,-210.0
1573.355,-210.0
1573.36,-82.88
1573.365,-87.65
1573.37,-210.0
1573.375,-210.0
1573.38,-85.1
1573.385,-85.1
1573.39,-89.87
1573.395,-210.0
1573.4,-210.0
1573.405,-210.0
1573.41,-210.0
1573.415,-210.0
1573.42,-210.0
1573.425,-210.0
1573.43,-85.09
1573.435,-81.11
1573.44,-81.96
1573.445,-86.18
1573.45,-210.0
1573.455,-210.0
1573.46,-210.0
1573.465,-210.0
1573.47,-210.0
1573.475,-91.62
1573.48,-81.11
1573.485,-82.87
1573.49,-210.0
1573.495,-210.0
1573.5,-210.0
1573.505,-210.0
1573.51,-210.0
1573.515,-210.0
1573.52,-210.0
1573.525,-210.0
1573.53,-210.0
1573.535,-210.0
1573.54,-210.0
1573.545,-210.0
1573.55,-210.0
1573.555,-210.0
1573.56,-210.0
1573.565,-210.0
1573.57,-82.59
1573.575,-83.17
1573.58,-85.09
1573.585,-86.85
1573.59,-84.42
1573.595,-210.0
1573.6,-210.0
1573.605,-89.19
1573.61,-210.0
1573.615,-210.0
1573.62,-85.6
1573.625,-85.34
1573.63,-89.86
1573.635,-210.0
1573.64,-85.88
1573.645,-88.61
1573.65,-86.51
1573.655,-86.51
1573.66,-210.0
1573.665,-84.22
1573.67,-82.87
1573.675,-87.64
1573.68,-85.6
1573.685,-85.34
1573.69,-210.0
1573.695,-210.0
1573.7,-85.09
1573.705,-210.0
1573.71,-210.0
1573.715,-210.0
1573.72,-89.86
1573.725,-87.64
1573.73,-91.62
1573.735,-210.0
1573.74,-97.64
1573.745,-83.49
1573.75,-83.84
1573.755,-210.0
1573.76,-210.0
1573.765,-210.0
1573.77,-210.0
1573.775,-84.42
1573.78,-80.92
1573.785,-85.6
1573.79,-92.87
1573.795,-210.0
1573.8,-210.0
1573.805,-210.0
1573.81,-210.0
1573.815,-210.0
1573.82,-210.0
1573.825,-210.0
1573.83,-88.1
1573.835,-210.0
1573.84,-90.65
1573.845,-82.73
1573.85,-83.02
1573.855,-87.23
1573.86,-85.6
1573.865,-83.33
1573.87,-86.18
1573.875,-83.49
1573.88,-82.46
1573.885,-80.65
1573.89,-82.2
1573.895,-88.1
1573.9,-210.0
1573.905,-210.0
1573.91,-210.0
1573.915,-210.0
1573.92,-210.0
1573.925,-89.86
1573.93,-210.0
1573.935,-210.0
1573.94,-84.42
1573.945,-89.86
1573.95,-82.33
1573.955,-83.02
1573.96,-210.0
1573.965,-210.0
1573.97,-210.0
1573.975,-210.0
1573.98,-210.0
1573.985,-210.0
1573.99,-210.0
1573.995,-210.0
1574.0,-210.0
1574.005,-210.0
1574.01,-210.0
1574.015,-87.64
1574.02,-88.61
1574.025,-94.63
1574.03,-210.0
1574.035,-210.0
1574.04,-210.0
1574.045,-91.62
1574.05,-82.46
1574.055,-210.0
1574.06,-210.0
1574.065,-87.64
1574.07,-87.64
1574.075,-94.63
1574.08,-83.67
1574.085,-85.34
1574.09,-210.0
1574.095,-94.63
1574.1,-82.59
1574.105,-88.1
1574.11,-210.0
1574.115,-210.0
1574.12,-210.0
1574.125,-210.0
1574.13,-92.87
1574.135,-210.0
1574.14,-210.0
1574.145,-210.0
1574.15,-87.64
1574.155,-210.0
1574.16,-210.0
1574.165,-210.0
1574.17,-210.0
1574.175,-87.64
1574.18,-83.84
1574.185,-85.09
1574.19,-91.62
1574.195,-84.86
1574.2,-94.63
1574.205,-210.0
1574.21,-90.65
1574.215,-83.02
1574.22,-94.63
1574.225,-90.65
1574.23,-94.63
1574.235,-210.0
1574.24,-83.17
1574.245,-89.19
1574.25,-87.23
1574.255,-89.19
1574.26,-210.0
1574.265,-88.61
1574.27,-85.88
1574.275,-89.19
1574.28,-210.0
1574.285,-210.0
1574.29,-83.84
1574.295,-87.23
1574.3,-210.0
1574.305,-90.65
1574.31,-83.02
1574.315,-88.61
1574.32,-86.18
1574.325,-87.64
1574.33,-210.0
1574.335,-84.63
1574.34,-81.52
1574.345,-94.63
1574.35,-84.22
1574.355,-82.33
1574.36,-210.0
1574.365,-210.0
1574.37,-210.0
1574.375,-85.09
1574.38,-85.34
1574.385,-210.0
1574.39,-89.86
1574.395,-210.0
1574.4,-91.62
1574.405,-210.0
1574.41,-210.0
1574.415,-210.0
1574.42,-210.0
1574.425,-210.0
1574.43,-86.18
1574.435,-89.87
1574.44,-82.34
1574.445,-210.0
1574.45,-210.0
1574.455,-210.0
1574.46,-88.62
1574.465,-82.6
1574.47,-83.85
1574.475,-91.63
1574.48,-210.0
1574.485,-210.0
1574.49,-210.0
1574.495,-210.0
1574.5,-86.86
1574.505,-210.0
1574.51,-210.0
1574.515,-210.0
1574.52,-210.0
1574.525,-210.0
1574.53,-210.0
1574.535,-210.0
1574.54,-210.0
1574.545,-210.0
1574.55,-90.66
1574.555,-86.86
1574.56,-210.0
1574.565,-210.0
1574.57,-210.0
1574.575,-89.87
1574.58,-88.62
1574.585,-86.52
1574.59,-210.0
1574.595,-210.0
1574.6,-210.0
1574.605,-87.65
1574.61,-210.0
1574.615,-210.0
1574.62,-210.0
1574.625,-89.87
1574.63,-210.0
1574.635,-86.19
1574.64,-83.18
1574.645,-86.86
1574.65,-92.88
1574.655,-85.1
1574.66,-80.58
1574.665,-82.74
1574.67,-84.04
1574.675,-94.64
1574.68,-85.1
1574.685,-85.1
1574.69,-84.43
1574.695,-83.03
1574.7,-86.19
1574.705,-210.0
1574.71,-210.0
1574.715,-210.0
1574.72,-210.0
1574.725,-210.0
1574.73,-210.0
1574.735,-210.0
1574.74,-210.0
1574.745,-210.0
1574.75,-210.0
1574.755,-87.65
1574.76,-81.63
1574.765,-83.85
1574.77,-210.0
1574.775,-210.0
1574.78,-210.0
1574.785,-86.86
1574.79,-210.0
1574.795,-210.0
1574.8,-91.63
1574.805,-210.0
1574.81,-210.0
1574.815,-86.19
1574.82,-94.64
1574.825,-89.2
1574.83,-81.86
1574.835,-82.21
1574.84,-86.19
1574.845,-210.0
1574.85,-210.0
1574.855,-210.0
1574.86,-210.0
1574.865,-210.0
1574.87,-210.0
1574.875,-85.35
1574.88,-82.88
1574.885,-83.34
1574.89,-210.0
1574.895,-86.52
1574.9,-84.64
1574.905,-92.88
1574.91,-85.35
1574.915,-210.0
1574.92,-210.0
1574.925,-88.62
1574.93,-91.63
1574.935,-92.88
1574.94,-83.85
1574.945,-81.22
1574.95,-94.64
1574.955,-210.0
1574.96,-210.0
1574.965,-87.65
1574.97,-210.0
1574.975,-210.0
1574.98,-82.09
1574.985,-89.2
1574.99,-210.0
1574.995,-210.0
1575.0,-210.0
